accel_x (m/s^2),accel_y (m/s^2),accel_z (m/s^2)
9.980963545967215245e-01,1.116515916780331033e-02,-9.780925180176865297e+00
1.002603292003951818e+00,-1.908826979093737608e-02,-9.797938712482123336e+00
1.014206460610237004e+00,2.022457814836466430e-02,-9.775396455887545244e+00
9.926261689591519000e-01,1.445450461573964847e-02,-9.791723967805440410e+00
1.014880563233245159e+00,1.509507888800604505e-03,-9.783710375405194171e+00
1.003786636303122703e+00,9.198472469958078601e-03,-9.778875665398937045e+00
1.000451361071036827e+00,7.212117480979399198e-03,-9.803193200709769073e+00
9.876726942967670730e-01,1.144667492443196891e-02,-9.780457556040300204e+00
9.874704873643979086e-01,-3.413141931120319914e-03,-9.789089576343835475e+00
1.003114194211055521e+00,1.214838927348951478e-02,-9.797753205957457467e+00
1.001232520114379243e+00,-9.731638626208044540e-03,-9.794973962743204865e+00
1.009479687038115969e+00,7.782992275645350157e-03,-9.805504675859364028e+00
9.944328698912461295e-01,1.001869327888282521e-02,-9.782078994492335866e+00
9.945634686056575857e-01,1.121683595661036002e-02,-9.801979508730413571e+00
9.908848015923783503e-01,1.142460493858989817e-02,-9.796533886691991100e+00
9.987781013155860865e-01,1.586601294449633062e-02,-9.786084397404314572e+00
1.001234581992552997e+00,1.609396708760080924e-02,-9.791519411688078378e+00
9.905052810640495586e-01,2.660145818132880410e-02,-9.782184899064169770e+00
9.972107559370642083e-01,2.564920982264172825e-02,-9.786478662174785015e+00
1.005592356923222130e+00,1.381401802136398432e-02,-9.796403422937336458e+00
1.001012248228552837e+00,1.641841971692746191e-02,-9.796198770470807560e+00
1.000945952414871609e+00,2.977548422566619196e-02,-9.800375546808957949e+00
9.994746500636901843e-01,2.710974297281693035e-02,-9.796379164692671893e+00
9.933333384186903148e-01,3.628805503992030279e-02,-9.804140174338080271e+00
1.006197854527143942e+00,3.256176080761259001e-02,-9.785919988004783576e+00
1.007840133092946067e+00,4.636734438574901390e-02,-9.801020562952825088e+00
9.924338440806120820e-01,2.754716243632080938e-02,-9.791542227126180720e+00
9.989133627942561322e-01,3.868193311240783472e-02,-9.807506408209501814e+00
1.003577740859467049e+00,3.148109919366989112e-02,-9.785534086639449569e+00
1.012677693448651217e+00,3.855855652619201435e-02,-9.803106217673676070e+00
9.960529865774179203e-01,5.700607033203791696e-02,-9.798061473044064940e+00
9.973507036669562176e-01,4.917483699787901508e-02,-9.803070466555418250e+00
9.955280878611770801e-01,5.953865452291822596e-02,-9.794270508141011078e+00
9.976771793881351602e-01,7.169149958758505581e-02,-9.783745235220530745e+00
9.933288169611479423e-01,6.174791956921889952e-02,-9.796438889677316908e+00
9.975147068301477571e-01,6.697036867912285751e-02,-9.790846934651423084e+00
1.007364358441805052e+00,6.358519196044178090e-02,-9.793666624661844011e+00
9.936408942436939506e-01,6.904732707263920577e-02,-9.793931519954394815e+00
9.890789573361884468e-01,7.663635043737959673e-02,-9.784438454094633641e+00
1.007363576115960946e+00,8.858659129946733213e-02,-9.796574067418013954e+00
1.003718241011758883e+00,8.608805919736388368e-02,-9.806735843883432224e+00
9.982511526124573376e-01,9.093611155399643209e-02,-9.784101045850700729e+00
1.006386580138634468e+00,9.255280898704350279e-02,-9.793041346522958435e+00
1.007855945012118726e+00,1.025892703225755737e-01,-9.807820114778103004e+00
1.026727589789207196e+00,9.997128514620183537e-02,-9.777712118641350258e+00
1.003349400228240151e+00,1.061425226570030383e-01,-9.795297153283790692e+00
9.932400457010374106e-01,9.428418961221797512e-02,-9.793776177902985935e+00
1.003682027130236465e+00,9.734017369517057594e-02,-9.791521436650224786e+00
9.940523870625279645e-01,1.211084582560979922e-01,-9.799579710056853799e+00
9.954918824597768223e-01,1.223171481095248342e-01,-9.789425244535539861e+00
1.004410625326272788e+00,1.310342476605471373e-01,-9.804574108573589797e+00
9.932516524024180837e-01,1.342485793228833102e-01,-9.793939619588952539e+00
9.987445884067859270e-01,1.499733620815399959e-01,-9.806906140925383042e+00
1.011478533505963950e+00,1.418908875591047558e-01,-9.793495302927091473e+00
1.000020670589431226e+00,1.387163330097304914e-01,-9.784815787455913849e+00
1.001565373509353707e+00,1.469915261681606911e-01,-9.795203428542743396e+00
9.949658754587650256e-01,1.528850905070880117e-01,-9.787219355162378065e+00
9.917280165772663914e-01,1.601574406712385212e-01,-9.797776851847151747e+00
1.004988759720787384e+00,1.709279084308248653e-01,-9.790963705617604873e+00
9.943525556016501454e-01,1.782571340397003934e-01,-9.803036216840540717e+00
9.865968414981806101e-01,1.882015840684757857e-01,-9.797875243429455594e+00
9.876534320273506751e-01,1.970322684197670926e-01,-9.789889564415105383e+00
9.904896937255398548e-01,2.054643856141710190e-01,-9.794670426522035456e+00
1.009007546803776023e+00,2.178123493817009093e-01,-9.794961879466296040e+00
9.881117827253291797e-01,2.098588476158855243e-01,-9.815249125652576012e+00
9.949031614066154994e-01,2.149439694419104097e-01,-9.799096294655084805e+00
9.875325676127794106e-01,2.159067601755084997e-01,-9.798997621922643120e+00
1.007548975558560045e+00,2.299979480101685958e-01,-9.800396502197745718e+00
9.947762700693212334e-01,2.360837654455435197e-01,-9.795873719934228063e+00
1.002342100642901856e+00,2.508850752115296956e-01,-9.797057594822106807e+00
1.019402415208238377e+00,2.619958113248783693e-01,-9.797311657264762275e+00
1.004638631063359044e+00,2.415370591655454646e-01,-9.800614730565522237e+00
1.000153422917287038e+00,2.577645283886229044e-01,-9.785023286927165387e+00
1.020734538140111392e+00,2.808184166743187826e-01,-9.797365807353205724e+00
9.900223225178170772e-01,2.745437098200160797e-01,-9.796122272774592687e+00
1.004195413712242635e+00,2.988137581938764553e-01,-9.786093197654345488e+00
9.965115551296191976e-01,2.918728976898252170e-01,-9.784593476821692448e+00
1.002104840843401901e+00,3.090197029946551988e-01,-9.789677951807002287e+00
9.963518829881844452e-01,2.998226430427715083e-01,-9.805047219172184469e+00
9.930458503322896480e-01,3.165582058107271335e-01,-9.804286287990315429e+00
9.987679833812175278e-01,3.314510343803538928e-01,-9.785884050489752184e+00
1.000480285696120131e+00,3.294249188086910696e-01,-9.788878775887395634e+00
9.885454515684471977e-01,3.378251613971393619e-01,-9.791569338776049847e+00
9.859277491574998109e-01,3.453661623949709769e-01,-9.801943728933590450e+00
9.956230842196098774e-01,3.417126258994913623e-01,-9.795879078980576082e+00
9.963370363065595647e-01,3.591518297488872080e-01,-9.806029810463208207e+00
9.927540169557028671e-01,3.719186825606799474e-01,-9.795229379422600857e+00
9.956449839952900005e-01,3.872556698885200599e-01,-9.786503218163028706e+00
1.004102865629850516e+00,3.825907098877380230e-01,-9.796464366873587792e+00
9.959243294020417858e-01,4.096314238925472528e-01,-9.809697877521996290e+00
1.001469467891044518e+00,4.047293680223390533e-01,-9.789333267907533553e+00
1.000103684630378797e+00,4.071815512565096773e-01,-9.791262438277321678e+00
9.929001833293665813e-01,4.206748144234866427e-01,-9.803128014028622772e+00
9.919868962497419007e-01,4.485955022185195151e-01,-9.786001292225900983e+00
1.001546229933987231e+00,4.401946881011095103e-01,-9.778152449536229085e+00
1.003135060596874961e+00,4.664687334275068320e-01,-9.784789796361190284e+00
1.006218928352037523e+00,4.642972740721690306e-01,-9.795561545153612215e+00
1.007501850027370693e+00,4.692542398156889227e-01,-9.785483335953763628e+00
9.897886360410637074e-01,4.730099998757554269e-01,-9.799340385670095799e+00
1.001368240337558557e+00,4.810183590812881493e-01,-9.798845748188817595e+00
1.000770409370141278e+00,4.969523599193702568e-01,-9.789561553308494979e+00
1.000177503127928746e+00,5.228832868434313275e-01,-9.792754978189837090e+00
1.008715718943956619e+00,5.156879766234561124e-01,-9.790323445920384060e+00
1.000899720372275370e+00,5.376620359517676473e-01,-9.796940888988618923e+00
9.939374818780412069e-01,5.429079845038230490e-01,-9.802003803563335893e+00
9.788456140740355860e-01,5.538422259870726672e-01,-9.793286573885410462e+00
9.959952697105008967e-01,5.697521542910326531e-01,-9.792691149181132815e+00
1.005004360691132748e+00,5.820947175584155753e-01,-9.793450089967690175e+00
9.981190154531400793e-01,5.835237147004480596e-01,-9.795460245787250386e+00
1.000164411457426628e+00,5.981306791940622647e-01,-9.784757821310908099e+00
1.000164532269838702e+00,6.223938530907344724e-01,-9.792035241786143374e+00
1.004422491049029142e+00,6.214676159045929849e-01,-9.788153511731930934e+00
1.001349313177707145e+00,6.283376237968361089e-01,-9.810221604764816306e+00
1.010153676553884772e+00,6.536753303389303271e-01,-9.798979736850917277e+00
1.010329767638044052e+00,6.566025669962927136e-01,-9.800807206164313001e+00
1.005393724203319739e+00,6.625195774110064217e-01,-9.797741550074531958e+00
1.005827195598589352e+00,6.754158821961564474e-01,-9.791912146102069059e+00
9.995466147397072953e-01,6.797743880268654060e-01,-9.786691095407523022e+00
9.959871401587846451e-01,6.855421923784019711e-01,-9.786774887265233147e+00
9.939232362009373656e-01,7.019423825918208459e-01,-9.796903840469704861e+00
1.001263353098585496e+00,7.143439240967708326e-01,-9.799140819274441583e+00
9.996246895679467004e-01,7.097925238462649000e-01,-9.790360833901170068e+00
1.006978923419010297e+00,7.229218274419751955e-01,-9.778144172637837528e+00
1.005495847521459707e+00,7.293063961100008097e-01,-9.800072229139633606e+00
1.000254906429389301e+00,7.170010902267476283e-01,-9.801107732300980757e+00
1.006529575397090204e+00,7.314453976654603506e-01,-9.788681566903973064e+00
9.946155293920444507e-01,7.510466127966498595e-01,-9.800421664899346297e+00
9.918822527175977788e-01,7.505995081090348631e-01,-9.777469916396636762e+00
9.943431896930807756e-01,7.572662228377150528e-01,-9.812062074509533716e+00
9.874132687738061964e-01,7.730584901164231360e-01,-9.790778675213221760e+00
1.013753330236901951e+00,7.491427763467258805e-01,-9.771694026719378812e+00
1.006527220722045701e+00,7.642073054378240027e-01,-9.782882398633381271e+00
9.947155676813626002e-01,7.647587013514905996e-01,-9.795371865024463887e+00
1.005146797028054761e+00,7.810436558261616424e-01,-9.805749717179994107e+00
9.939304159073378830e-01,7.618236703451093383e-01,-9.807053217721280802e+00
1.002755262608141296e+00,7.824366144174486060e-01,-9.789888467013650342e+00
9.890659228391186497e-01,7.891266094788357277e-01,-9.788952743065417295e+00
9.966674887133676330e-01,7.796324305414674694e-01,-9.792488158656681208e+00
9.866325965587529057e-01,7.978447240396753237e-01,-9.794442196519632660e+00
1.002387482315623801e+00,7.668412386104933587e-01,-9.790574094971480790e+00
1.002770396993480695e+00,8.012520378016995126e-01,-9.786928542858884583e+00
1.002979029792815169e+00,7.840160757224581278e-01,-9.793881849387171101e+00
1.001943249571095595e+00,7.914722052884398673e-01,-9.791778734843752829e+00
1.001547997704266280e+00,7.922804738391834301e-01,-9.802152186734849337e+00
9.916623555857986272e-01,7.871840111738114265e-01,-9.792337197534925153e+00
1.009115482350021686e+00,8.094924167605029863e-01,-9.802804373155527884e+00
1.004164446361180074e+00,8.157703861486547137e-01,-9.781638189466349331e+00
9.811411072083121576e-01,8.138838442487025260e-01,-9.791246547809535627e+00
1.015213251514159420e+00,7.980509451442471258e-01,-9.791993066661246914e+00
1.000179351401402572e+00,8.151697453305019048e-01,-9.804037390423845366e+00
9.950112357605949143e-01,8.099694078140299291e-01,-9.799217971764965895e+00
1.005770260873755539e+00,8.155980478274703627e-01,-9.788281823829509065e+00
1.004589569554913631e+00,8.029968618055072227e-01,-9.787845149967397518e+00
1.008933602696177045e+00,8.363228939531381911e-01,-9.785027286738152696e+00
1.018510738399320603e+00,8.276387938580456183e-01,-9.790462567823995599e+00
1.006158330776021792e+00,8.238006656929826033e-01,-9.793609148350848059e+00
9.927242164096354848e-01,8.231108985780972720e-01,-9.790531252960066766e+00
1.018269969401715880e+00,8.088377425414481348e-01,-9.800354076457736596e+00
1.003358726919062027e+00,8.147772902046030996e-01,-9.795584106161845384e+00
1.006464574177236004e+00,8.030682050342601297e-01,-9.807846297000853752e+00
1.011122761879408527e+00,8.306817153576956381e-01,-9.800233669999727226e+00
9.915393856077945323e-01,8.256913611937150010e-01,-9.795637171494163908e+00
9.997422521893888359e-01,8.200133284653399190e-01,-9.807828522004214733e+00
9.962234097662041599e-01,8.374080163137054278e-01,-9.790773085779461482e+00
1.007221680138106201e+00,8.239273228831202056e-01,-9.802345503756480838e+00
1.005815609926342891e+00,8.384169952954498850e-01,-9.804682964794002586e+00
9.967236901430048812e-01,8.231879392296793663e-01,-9.801277737446609351e+00
9.893268636960395046e-01,8.371126425820344386e-01,-9.784781280497261591e+00
9.881040494224346826e-01,8.220679295554710331e-01,-9.789377815919433345e+00
1.000889700842965135e+00,8.379454438223754575e-01,-9.784038863163031507e+00
1.012396162541769673e+00,8.376024987615026118e-01,-9.792472222192795783e+00
1.014238843405908863e+00,8.404074658694981048e-01,-9.800395436856117470e+00
9.927134771977201844e-01,8.183701584808993346e-01,-9.800153837682964664e+00
1.001674476197063068e+00,8.329464565695442468e-01,-9.802345461871604826e+00
1.006487455894436556e+00,8.221798224331861027e-01,-9.795731222928205639e+00
1.008754616032863316e+00,8.335687387937240622e-01,-9.800173019020899545e+00
9.921539575477003048e-01,8.313668608601976207e-01,-9.782939543482362055e+00
9.983499517828398062e-01,8.234870180034757903e-01,-9.800179385108807040e+00
1.000656666854004451e+00,8.209944625585894329e-01,-9.803656361651071904e+00
1.009046352878444575e+00,8.308949899087334501e-01,-9.801121472011438129e+00
1.001713941290609089e+00,8.320762932270255874e-01,-9.795424632239372542e+00
9.898198917782379258e-01,8.387471134201481826e-01,-9.784070484113986055e+00
9.984624297177612240e-01,8.468375399598588871e-01,-9.792330402408685686e+00
9.951920694268248102e-01,8.381382506283776568e-01,-9.796171788072271625e+00
1.006559453065833720e+00,8.316861811487900047e-01,-9.783787148213843210e+00
1.008503419924567268e+00,8.421053767856276906e-01,-9.787537258395158091e+00
1.001720173378227052e+00,8.376281611366878099e-01,-9.796984158832010792e+00
9.969331184960465997e-01,8.394065547338882549e-01,-9.794233378124710399e+00
9.962520624772240874e-01,8.481407887516380084e-01,-9.802705392099616333e+00
9.899090628007568560e-01,8.339597825335894887e-01,-9.794823090080946315e+00
1.006197747314584001e+00,8.433909447008257620e-01,-9.803730239043431993e+00
1.005655244283132577e+00,8.440113942052253071e-01,-9.790452339233615575e+00
1.010115674305329447e+00,8.316678123766649833e-01,-9.793867176954279330e+00
1.004513128115235077e+00,8.298968963367983065e-01,-9.805859612412248794e+00
9.962449744762352788e-01,8.147290560590406683e-01,-9.784047846990254982e+00
9.992557626404435789e-01,8.384053450254299600e-01,-9.776773832858264512e+00
1.005165849171308246e+00,8.386429986695882466e-01,-9.794577179764047514e+00
1.004808405551247841e+00,8.284172275653357564e-01,-9.779761064290644512e+00
9.964986949817780104e-01,8.347674623182375075e-01,-9.792188831939244054e+00
9.897230847095430661e-01,8.371152420189289511e-01,-9.784951337733312826e+00
1.000869229691455642e+00,8.462931156227319063e-01,-9.795921513120294577e+00
1.001797443076560157e+00,8.305215321320801314e-01,-9.788574115225507910e+00
1.016783341274778873e+00,8.321837558035261040e-01,-9.778219915585921740e+00
9.904066562452710221e-01,8.326477269666394676e-01,-9.785431309877129280e+00
9.990138140722685245e-01,8.434328431284544569e-01,-9.787108874378226631e+00
1.005609607692447671e+00,8.247915429055054926e-01,-9.784280795600945879e+00
1.014848555314991740e+00,8.381312484773236759e-01,-9.803420142707029328e+00
1.004824956861697371e+00,8.453693213436438425e-01,-9.805354060069696231e+00
9.843824756546039056e-01,8.353300361827974418e-01,-9.799197715415218113e+00
9.961549692015098101e-01,8.391340989983727683e-01,-9.798232164109446529e+00
9.839880317781735108e-01,8.332368863130746872e-01,-9.804922390784014397e+00
1.000987469503835881e+00,8.439352714325318860e-01,-9.805999724761219838e+00
1.007281196001802437e+00,8.203232137204166108e-01,-9.793239934545782788e+00
1.003353271377961820e+00,8.186312533792633461e-01,-9.789225877537214515e+00
1.001915168014688495e+00,8.347544178095041012e-01,-9.804741943299140061e+00
9.878490462797362426e-01,8.202653313928378598e-01,-9.788429259962367013e+00
9.767746759710707050e-01,8.352006180454070172e-01,-9.781645683365566057e+00
1.003439956423103352e+00,8.336074274213526314e-01,-9.782477389369450549e+00
1.001553561379151747e+00,8.220163463081026078e-01,-9.790269388759021751e+00
1.005454008845856562e+00,8.403104768214794129e-01,-9.796279835290192750e+00
9.827545595893205643e-01,8.157076785642227712e-01,-9.792551344709501393e+00
1.000109212845409434e+00,8.469578810434558180e-01,-9.795783630180103785e+00
9.999216617636578208e-01,8.355018720235147800e-01,-9.789388407040075180e+00
1.001766922468579013e+00,8.323760009109387736e-01,-9.794855022842577696e+00
1.005511934722106204e+00,8.260270865233975135e-01,-9.801768635946412900e+00
1.001052466721957801e+00,8.236867484245659066e-01,-9.784165984878248068e+00
9.958954698257281857e-01,8.118088616470945373e-01,-9.784568083398683669e+00
9.862468071257628477e-01,8.289772121690993645e-01,-9.791963805014372468e+00
9.869896182474052759e-01,8.070665934749103876e-01,-9.793375607784092551e+00
9.919155740716487646e-01,8.323490375721626089e-01,-9.798233933765731152e+00
9.933698652387339401e-01,8.245114109882263342e-01,-9.784725929602151595e+00
1.006065867862414365e+00,8.202251468680663571e-01,-9.788786921355962178e+00
9.997405302261802573e-01,8.200159788767580338e-01,-9.805939125834932213e+00
1.007949004687181516e+00,8.209009758453628125e-01,-9.797320304032901106e+00
1.003766594691232861e+00,8.264493128224841278e-01,-9.793141698648502924e+00
9.945304010203871448e-01,8.270595533241580366e-01,-9.777219352860038626e+00
1.021047274219129219e+00,8.264279069867599414e-01,-9.794302114488496969e+00
9.959516438164232044e-01,8.338869407708703330e-01,-9.793106503954620123e+00
9.863532087281596805e-01,8.004765757900283996e-01,-9.815782159941127460e+00
1.017828619592294759e+00,8.129912286087401796e-01,-9.793664815570613413e+00
9.889363957207419897e-01,8.124907398008639481e-01,-9.784441454006689298e+00
1.018150117547466538e+00,8.263872610664794172e-01,-9.808699860530856185e+00
1.015568117428139905e+00,8.009972353347268870e-01,-9.774993098270387648e+00
9.939856924258760884e-01,8.109937079982904029e-01,-9.789730117817711630e+00
9.918074624312468446e-01,8.184020669184527419e-01,-9.786442782078696112e+00
9.986818836064113025e-01,8.071589542020294328e-01,-9.799432262151769990e+00
1.002530786773985882e+00,8.119297293547110828e-01,-9.779814342430608320e+00
1.004753310461264926e+00,8.102681770133601802e-01,-9.803042697462478472e+00
1.004339988340164469e+00,7.892794027879890262e-01,-9.796622897804478924e+00
9.983590431829002521e-01,8.007165014959032323e-01,-9.806089364157763555e+00
1.003522274664953029e+00,8.010537040935250541e-01,-9.809142078166001255e+00
1.010235251552810798e+00,8.019938856571605656e-01,-9.799727260739160783e+00
1.007710700174456742e+00,7.929822545979136050e-01,-9.788213927353304200e+00
9.866547947488311099e-01,7.914083065559107677e-01,-9.804811221234421836e+00
1.013515406624269088e+00,8.052040443364556488e-01,-9.793495108709597829e+00
9.988843185100433342e-01,8.002626350307353587e-01,-9.799943054789933328e+00
1.011368620040466126e+00,8.077072551658365240e-01,-9.791809627052730391e+00
9.952029252831824380e-01,7.973650125663105381e-01,-9.802076991809499873e+00
1.008750702373409025e+00,7.925470517459155539e-01,-9.783563565731485667e+00
9.915109050160201276e-01,7.935830259038406664e-01,-9.802526497135691130e+00
9.973095506998723714e-01,7.740849258799409327e-01,-9.810240787213421854e+00
9.698314400665052348e-01,7.844476481115157940e-01,-9.799243802649463930e+00
1.002891941215498406e+00,7.867838128469721859e-01,-9.801817057526099219e+00
9.934156409128299670e-01,7.908648503789377227e-01,-9.798032694682520471e+00
1.000021828132305668e+00,8.010012662559891083e-01,-9.794925103845228520e+00
9.865857739956540584e-01,8.023924729806147793e-01,-9.809662550005070258e+00
9.932224879638631432e-01,7.922486222602448391e-01,-9.786852644811343538e+00
1.008400248838920099e+00,7.838512300402353805e-01,-9.801797683408986828e+00
9.838654248498616139e-01,7.806139319256520936e-01,-9.802879434745637610e+00
1.001370648195190949e+00,7.700355744001013969e-01,-9.805085914381164613e+00
1.007558525995614129e+00,7.810987690837623010e-01,-9.773693021153317062e+00
9.924991349108512884e-01,7.862092315917933449e-01,-9.798208168210924995e+00
1.010757213590417258e+00,7.635057855528967208e-01,-9.778876781283761588e+00
9.866812781605160954e-01,7.927709054729641380e-01,-9.794545325193025676e+00
1.007124801660696845e+00,7.813467067286393730e-01,-9.789878043257266071e+00
9.903041014344693416e-01,7.726107660825187740e-01,-9.788038144280262642e+00
1.011509410506960416e+00,7.743288223674025250e-01,-9.801877067086408601e+00
9.934507516236330549e-01,7.727959469974475804e-01,-9.791427144162284435e+00
1.001359890657901319e+00,7.682181491623668590e-01,-9.787821197916795057e+00
1.001296461100619206e+00,7.757284900889703794e-01,-9.781288959797294069e+00
1.009591948083722990e+00,7.672748063440013588e-01,-9.787378257152687056e+00
1.000176925516239157e+00,7.656086116660625329e-01,-9.789388267811361288e+00
9.915218051165396451e-01,7.698608145700378547e-01,-9.806443059473144430e+00
9.846251142983296623e-01,7.529426971614601172e-01,-9.798034290833351534e+00
9.968821158316794051e-01,7.626281636259039098e-01,-9.778922481327734673e+00
9.975728689925154047e-01,7.712567742690191741e-01,-9.811363986764353839e+00
9.866929855769810409e-01,7.525153148368699529e-01,-9.798731360604095997e+00
9.990008994994195035e-01,7.598575746369442552e-01,-9.787328705784830163e+00
1.001290597248261749e+00,7.715326079868995990e-01,-9.785899822082287258e+00
9.983275755944361896e-01,7.601632678418057676e-01,-9.776875945933149126e+00
1.000446414945997953e+00,7.569678508006514317e-01,-9.787758915313863994e+00
1.003993569861383106e+00,7.535398072811781978e-01,-9.790069939672491728e+00
9.958675335571139930e-01,7.533804861223400984e-01,-9.798966831993372040e+00
9.893248735006786587e-01,7.568902321941129996e-01,-9.802905447641444781e+00
1.004002720507212176e+00,7.341279376193018402e-01,-9.802749278223890528e+00
1.008727510671747263e+00,7.478283181083665854e-01,-9.780335383364839430e+00
9.954740215956342508e-01,7.454203279537481297e-01,-9.799267318767988399e+00
1.001443251333061779e+00,7.443301465154454899e-01,-9.793925127297066879e+00
9.969013315346990645e-01,7.338854615260527181e-01,-9.788398798183971294e+00
1.002083311048121983e+00,7.422177369648299550e-01,-9.815860593657857791e+00
9.932530263913926794e-01,7.408587273425873976e-01,-9.799174394643445751e+00
9.820079993300803167e-01,7.315141551070183379e-01,-9.805621667086374060e+00
9.991015278838430991e-01,7.204648009887487659e-01,-9.804158373798495418e+00
9.970845021335278391e-01,7.386031193949519347e-01,-9.792857890431168499e+00
9.954818167156109787e-01,7.454411772362334876e-01,-9.784603377726742934e+00
9.893194573552384075e-01,7.376890058135772144e-01,-9.793609845395543800e+00
9.995612266176944205e-01,7.433368494010151872e-01,-9.805454040033763974e+00
9.897292237684401917e-01,7.249965070969452974e-01,-9.787923067825611056e+00
9.944466220496340769e-01,7.279300547780054309e-01,-9.798956113348152641e+00
9.860547897339445589e-01,7.136082673236328056e-01,-9.790870240472035135e+00
1.003341527883740536e+00,7.218265970973225532e-01,-9.790218492906662462e+00
1.003677517961713006e+00,7.277819302612122954e-01,-9.795176153208807079e+00
9.949472255737337179e-01,7.278184696289589084e-01,-9.807242737378722097e+00
1.005164738927855961e+00,7.223526575438319330e-01,-9.803108108895257189e+00
1.005958769736279290e+00,7.005892235625824638e-01,-9.807946736140115362e+00
1.008635316771866908e+00,7.093963308606764384e-01,-9.790636642885896634e+00
9.933073136165893047e-01,7.065494935532620202e-01,-9.783958548922546683e+00
9.941700545574316816e-01,7.192598351247313504e-01,-9.799883769896210239e+00
9.876618714087018747e-01,7.076485135549767103e-01,-9.794000709767040291e+00
9.954506552540391962e-01,7.130123035223686623e-01,-9.795011800539887403e+00
9.930935099128771482e-01,7.045708509575238088e-01,-9.793288261057153221e+00
9.835837259000043131e-01,6.982335631393158382e-01,-9.794570388776556058e+00
1.009109525698371534e+00,7.040702444704559637e-01,-9.801177818975521205e+00
9.819791437935025957e-01,7.111801196234874833e-01,-9.807035258789964516e+00
1.002584497591909596e+00,7.080574490446470692e-01,-9.798822728269101390e+00
1.005045694193350325e+00,7.033725915409977381e-01,-9.797901062894975865e+00
9.940121683021829746e-01,6.919029292612880466e-01,-9.788348331453862627e+00
1.009856962709816841e+00,7.144491683187462749e-01,-9.791109183761498969e+00
1.004473540038016699e+00,6.913667733406037019e-01,-9.804197273779067245e+00
9.997021348173116273e-01,6.904733741319446505e-01,-9.803759343451076802e+00
9.978829543517248046e-01,6.950856327930156064e-01,-9.788615159926115084e+00
1.004639485374424046e+00,6.932906147228586891e-01,-9.781930974465437245e+00
9.828696118630244616e-01,7.016238155084867367e-01,-9.782769682616386575e+00
9.814994412714934668e-01,6.916894939380979768e-01,-9.784117792386840762e+00
1.011737633749038690e+00,7.049390813456241078e-01,-9.794670080673412826e+00
9.881982486771661023e-01,6.941375727425145303e-01,-9.781145330746999988e+00
1.008312982381769363e+00,6.705764838209078427e-01,-9.802215755596382252e+00
9.890065709095484658e-01,6.835910515537024779e-01,-9.801677830032124561e+00
9.920318295035006617e-01,6.883323677764623394e-01,-9.800452851485806249e+00
9.843627397473783125e-01,6.832141962817660508e-01,-9.787601334787684237e+00
9.939947979931048616e-01,6.792684577953863601e-01,-9.783563282890638035e+00
9.874524341557439078e-01,6.761235781454626448e-01,-9.782467683663467639e+00
1.013924019287186784e+00,6.705130914838349776e-01,-9.792018983167052326e+00
1.000541353110650622e+00,6.688943053280630435e-01,-9.795263926144375688e+00
9.969209718838945022e-01,6.848003772132192912e-01,-9.794121339425931438e+00
9.944587337760443235e-01,6.640616917330043334e-01,-9.801002775379037857e+00
9.958933819189353942e-01,6.678154763300988561e-01,-9.793862254494836606e+00
9.961869335083944899e-01,6.548815133471037608e-01,-9.791243899625724723e+00
1.008705349395269790e+00,6.702675029045224164e-01,-9.813272247849722518e+00
9.926845818273145605e-01,6.685589507525517838e-01,-9.793297231269439962e+00
9.985242859501921586e-01,6.773716270198477662e-01,-9.793960905887448831e+00
1.004795077676466031e+00,6.758224321639008103e-01,-9.791769704073860936e+00
1.014002694503802093e+00,6.551154140210042609e-01,-9.803001609424935481e+00
9.936627797716768296e-01,6.520266757141526259e-01,-9.782594265300298630e+00
9.976176870320258017e-01,6.416467530989991008e-01,-9.793000280189419371e+00
9.948521992456332841e-01,6.627378575527100857e-01,-9.799864860207858186e+00
1.000198012944900405e+00,6.540090495219046396e-01,-9.786396015260145020e+00
9.772014215461524156e-01,6.731136306807423697e-01,-9.799379884621052028e+00
1.005064345155951777e+00,6.568512779214886743e-01,-9.796534033631344229e+00
1.000182912233952504e+00,6.437276032265480952e-01,-9.800282075436681950e+00
9.999086851662783992e-01,6.481492523672995887e-01,-9.789521864168852616e+00
1.003229440713858223e+00,6.313854752835121875e-01,-9.786271542399713752e+00
1.000713435442155852e+00,6.484913279414810106e-01,-9.789298918543050121e+00
1.000251861456036284e+00,6.508998728165339420e-01,-9.789908222137588822e+00
9.997049551624525021e-01,6.437334960800160655e-01,-9.791737354689963979e+00
1.002021097549709916e+00,6.379615262930414810e-01,-9.787726191712714297e+00
1.000635363003701261e+00,6.405019440541349640e-01,-9.795223783950682162e+00
1.009758580211306933e+00,6.218431188935575893e-01,-9.796212792349733078e+00
1.001062308830554359e+00,6.455906241203666074e-01,-9.812207360035564818e+00
9.815561647892643293e-01,6.366595245821911053e-01,-9.807411809564085203e+00
9.996479920969921773e-01,6.354382660635407021e-01,-9.792515058032048358e+00
9.984404596989936431e-01,6.201516172871465171e-01,-9.785015679043116421e+00
1.001777641379691941e+00,6.143556978028670290e-01,-9.795381273366878361e+00
1.009144192710162313e+00,6.351620139011000532e-01,-9.784279776210643931e+00
9.919967154773888796e-01,6.381486757300934842e-01,-9.794831210449684633e+00
9.966630229539515939e-01,6.144999893492317788e-01,-9.798925233792351364e+00
1.002744167657882102e+00,6.183221889794349169e-01,-9.779320809503431633e+00
9.882917095847471023e-01,6.272513725390075345e-01,-9.791312015571026706e+00
1.001550175177053248e+00,6.073433491879678403e-01,-9.788746474389993679e+00
9.970391256778540212e-01,6.031907793057170730e-01,-9.813073860815965332e+00
9.994282840636234955e-01,6.141760378346025062e-01,-9.792884019485640579e+00
1.004760218219945989e+00,6.133111062754409426e-01,-9.774729821747060399e+00
1.017209206397898358e+00,6.168294795211306525e-01,-9.796438985313939085e+00
9.928464691990052104e-01,6.088757675597310515e-01,-9.803535528655061171e+00
9.860702062786182998e-01,6.019933446361694918e-01,-9.812265541555939663e+00
9.911573107597220211e-01,6.121390404053239642e-01,-9.793545037972290146e+00
9.952073733390747190e-01,5.993550596426748811e-01,-9.807954704106125021e+00
9.911448693079961680e-01,6.032902681904084297e-01,-9.782518678203960150e+00
9.970086086477435439e-01,6.159691049274974572e-01,-9.785580364422596489e+00
9.991877887684768034e-01,6.167723397641879934e-01,-9.784171337291077464e+00
1.004613500551241323e+00,5.934199699614258749e-01,-9.798750579834489827e+00
9.938271559459525006e-01,5.802548448730260322e-01,-9.801017687512516119e+00
1.004700181513187518e+00,5.948655830223625873e-01,-9.786966143813202734e+00
1.006393159994517728e+00,5.899308692754782202e-01,-9.783154127553480350e+00
1.017762251046878674e+00,6.012961960001694806e-01,-9.799248918246590279e+00
9.999706475496168423e-01,5.940286581175979741e-01,-9.796095465912829425e+00
9.941171014101392034e-01,5.856991278859023931e-01,-9.796575705352340790e+00
9.974987387034137676e-01,5.923059021626666532e-01,-9.793638218553345709e+00
1.001317254338955021e+00,5.815747133023201343e-01,-9.795405394446921932e+00
1.007585873303433521e+00,5.961202911789754699e-01,-9.794290105288883552e+00
1.961216487145149307e-03,5.774182505448566260e-01,-9.797311002942841185e+00
4.258450071973610661e-03,5.759927638743260747e-01,-9.782242419466005146e+00
4.721808748188366378e-03,5.820741795538697527e-01,-9.795465390631473923e+00
5.351866965319420147e-03,5.763175425975840538e-01,-9.786179426428590844e+00
3.831638865210453687e-03,5.750907330506351833e-01,-9.779478774768758598e+00
-3.307697195934895980e-03,5.636258012193519074e-01,-9.795144502171114098e+00
9.051351332716412595e-03,5.765907609415482638e-01,-9.782178896788771283e+00
-1.622825977662519306e-02,5.601410549432610519e-01,-9.781949471744908919e+00
-3.240141851808851087e-03,5.572404577772009926e-01,-9.799117028091030690e+00
-5.403122712996309349e-03,5.561672466505468426e-01,-9.787260554023232473e+00
4.265504917624533474e-03,5.525710172761193473e-01,-9.782709053114203357e+00
8.394703970644410221e-03,5.414325755923360406e-01,-9.773510318261969587e+00
-1.001747767447747376e-03,5.510005735819925032e-01,-9.799448898369625738e+00
1.701067321454264800e-03,5.411549906507492347e-01,-9.791447068772454188e+00
8.901226770946728262e-03,5.290304052212385644e-01,-9.789706369362843219e+00
-2.890785662430914692e-03,5.403947016356869248e-01,-9.781156295783658194e+00
4.499538571504599696e-03,5.442500043693411227e-01,-9.808738956444713608e+00
-4.987275395835205974e-03,5.191313137782550546e-01,-9.787566450329833856e+00
-8.178924784517099464e-03,5.423271838235121933e-01,-9.799592938268979481e+00
-4.348738152387611640e-03,5.288481780678649935e-01,-9.791860452682223936e+00
-2.884060877927136727e-03,5.238663412185965429e-01,-9.784008976681159098e+00
1.224765376597738292e-03,5.303742130781239350e-01,-9.790656072758881834e+00
-5.990736858478314456e-03,5.149038314487044410e-01,-9.793794439418244124e+00
-3.855469359588379295e-03,5.152985678178363393e-01,-9.798670920769012582e+00
-1.192970349990383691e-02,5.051042965877801105e-01,-9.787047314477732129e+00
5.705422831289158744e-04,5.116139758857464193e-01,-9.789587941882267330e+00
-6.953636510495396841e-03,5.161921159330546960e-01,-9.792059738392390855e+00
-1.693866872289840828e-02,5.099705927859484733e-01,-9.796869909836441792e+00
-4.318866528257211609e-03,5.118866806778105127e-01,-9.793755383840478501e+00
1.197851288123495846e-02,5.072942474099170207e-01,-9.799138773145536163e+00
3.160774506220755294e-03,4.987787570500714640e-01,-9.779744708244331619e+00
6.640432744145097037e-03,4.773425035059793986e-01,-9.808682838505754731e+00
4.307886668626303658e-04,4.910433967700522095e-01,-9.801738876513127252e+00
-2.067715432572058559e-02,4.821513593947005516e-01,-9.796024629085719582e+00
-4.463155204018285672e-03,4.885514700033252167e-01,-9.795285588125052456e+00
9.812914931324565049e-03,4.858283981170362642e-01,-9.800541151754792679e+00
-1.158253717665571648e-03,4.953440516577439223e-01,-9.775307678655138943e+00
-2.473274268279795646e-03,4.803218097490579708e-01,-9.794072857468545834e+00
-1.287718674489284239e-02,4.795280314379450903e-01,-9.795708031945082439e+00
-4.428856106206718012e-03,4.707425384242874267e-01,-9.779450285336833915e+00
-7.050000298259452135e-04,4.748689246594051117e-01,-9.789961831246728252e+00
-4.478174746794310115e-03,4.543177215679554126e-01,-9.804910005002644979e+00
5.586375367377852293e-03,4.534818255350543947e-01,-9.788681326197451682e+00
-2.485258927884984731e-03,4.701200014819553186e-01,-9.793189976086475568e+00
-6.027801664095572970e-03,4.515674553783634582e-01,-9.790839244029832855e+00
3.145989765017834314e-03,4.686249654182334523e-01,-9.796893581956064523e+00
6.433710565050589254e-03,4.545018042494226029e-01,-9.776096485732267638e+00
-9.845861785384308826e-03,4.546759441122723566e-01,-9.808227330288891821e+00
2.990387086717142748e-03,4.570011469709640561e-01,-9.795372363439220464e+00
-3.806596455684337684e-03,4.509163176621990843e-01,-9.788546605838725156e+00
-1.235480832900041036e-02,4.583237247462381148e-01,-9.791326119150168594e+00
-6.398643849627487154e-04,4.551770908901762724e-01,-9.798110124173815549e+00
-5.811299198224331719e-03,4.429286090196886128e-01,-9.782461341724889792e+00
-9.351789457092604327e-03,4.370080409657419729e-01,-9.801704274994499144e+00
-8.736651834037901035e-03,4.430387288429203929e-01,-9.788269991903765899e+00
1.011998877227167880e-02,4.254485031571792475e-01,-9.806024829655751063e+00
-9.914186859803209712e-03,4.232438720212654548e-01,-9.793650476980092279e+00
4.767855846256136010e-03,4.362689231268915835e-01,-9.788505296748990503e+00
1.982686987714049761e-04,4.337319142039494646e-01,-9.798173554483097902e+00
1.175094155897836966e-02,4.258557212050703145e-01,-9.804285141113961544e+00
-7.968075561098972651e-03,4.298464809383568674e-01,-9.796181474649777954e+00
1.540543501451297100e-02,4.293829182317479010e-01,-9.775236843715681800e+00
2.491965057151994140e-03,4.102276033525107946e-01,-9.791539830410783907e+00
7.627253672129943353e-03,4.135083030330240494e-01,-9.799724825119252358e+00
1.349971346320267586e-02,4.230175216111391467e-01,-9.803261767861004117e+00
1.499613563002847282e-02,4.050806291392403669e-01,-9.789419485164694734e+00
1.155657751994200802e-02,4.089874922733199303e-01,-9.777695383735450108e+00
-1.390184014775314690e-02,4.056738521615887438e-01,-9.802794800784768725e+00
1.772066385937799606e-03,4.113216018808739105e-01,-9.789555352795517251e+00
1.256128664171959203e-02,4.141630005273516102e-01,-9.791293734946892258e+00
6.888261507195386942e-03,4.070460940936755923e-01,-9.811097991229305038e+00
-4.758647453404376074e-03,3.865312134673050126e-01,-9.779979927995054112e+00
-3.285166167875787878e-03,3.978210860575286945e-01,-9.798730943329767129e+00
-1.077496394674742897e-02,3.925035753744112177e-01,-9.798598277149443092e+00
-6.290751403520165007e-03,4.017434351305707030e-01,-9.799305904013872137e+00
3.636682528833369912e-03,4.043420235926254436e-01,-9.786988166494811736e+00
-5.677672082777244188e-03,3.861304881797634203e-01,-9.788297907663105590e+00
-1.750229224303482536e-03,3.795039762342173328e-01,-9.802364082277799540e+00
4.583823684627542049e-03,3.939413223117210761e-01,-9.803540096470229059e+00
3.844516901997941261e-03,3.931069147936835928e-01,-9.788995182867248346e+00
-9.589621971542455423e-03,3.840252217539169566e-01,-9.797463440237992316e+00
-1.395800768418989021e-03,3.678359552697146873e-01,-9.791650444964465905e+00
-2.156626776218604352e-02,3.961232384472224144e-01,-9.807982824182071013e+00
-9.664327852983004008e-03,3.842415960683510101e-01,-9.782536016314246297e+00
-8.164900595936667310e-03,3.788725488694411059e-01,-9.792807392681741163e+00
-3.796142013494741908e-05,3.663198560005724302e-01,-9.795501400093209909e+00
3.048674161395769928e-03,3.654943123071500710e-01,-9.788953574866285479e+00
1.078230428678748042e-02,3.597378639577271109e-01,-9.787311014041190305e+00
-5.829760073690144068e-03,3.727137744013336862e-01,-9.786969222514407818e+00
-9.174016371197586672e-03,3.670524401814890258e-01,-9.806174501550575684e+00
1.469553287876073505e-02,3.571452075869454568e-01,-9.790567873594479664e+00
-6.186065586583823321e-03,3.654600751355832622e-01,-9.795550352419800433e+00
1.616359879527201962e-02,3.707790607751456635e-01,-9.804725717396356899e+00
3.859546603674472113e-03,3.591047108341403615e-01,-9.804662899865217440e+00
-9.043750736175843949e-03,3.624585612426533543e-01,-9.786312842037167670e+00
-1.793533915861506706e-02,3.527044904472091957e-01,-9.790589431969328515e+00
-4.537525076542270504e-03,3.575826030452948778e-01,-9.798557866546323325e+00
-6.557562477356445457e-03,3.629421075830609467e-01,-9.809529427534943835e+00
3.446503163395508128e-03,3.558859131009307064e-01,-9.791498140779664183e+00
5.286676632075115040e-03,3.466284723076171193e-01,-9.784343699677197748e+00
2.187795429674903487e-03,3.516352228296696913e-01,-9.793540527474306145e+00
3.858220657303776499e-04,3.463069024459053402e-01,-9.787801446886950529e+00
-4.795603185718942674e-03,3.384470954361514794e-01,-9.790209441969235371e+00
-4.669035369012502096e-05,3.370084556871180137e-01,-9.789805737269810848e+00
3.442690776608869213e-03,3.332740284060189406e-01,-9.773066311676677387e+00
1.495128549263676290e-02,3.466813234658285281e-01,-9.811448913519312143e+00
1.426298784166787556e-02,3.152847526707208137e-01,-9.794685699987713434e+00
5.456066974724781658e-03,3.396805514151994831e-01,-9.794660628654945356e+00
1.931000779480848001e-02,3.187238023059176806e-01,-9.795100082811009301e+00
3.899084052716274632e-03,3.508953089922629553e-01,-9.788615880080172360e+00
-1.966142202768976499e-02,3.339836828056370610e-01,-9.782107440575284585e+00
9.087026085659243371e-03,3.439802953571004518e-01,-9.800177457569267503e+00
-8.353457089960164431e-04,3.123363429942023761e-01,-9.794404047598762375e+00
-1.037792571272778269e-02,3.150885142588304433e-01,-9.791054755879201821e+00
6.927754283497712662e-03,3.158908325816278118e-01,-9.785495320822155563e+00
2.710372125395003797e-03,3.173837773416472441e-01,-9.803984608466077333e+00
-1.132135414642478424e-02,3.250633706617941932e-01,-9.794878178306280603e+00
8.594057958915792689e-03,3.132414238418814167e-01,-9.794717728529082734e+00
1.026228545041817965e-02,3.122119046452488389e-01,-9.781721483782428450e+00
6.649651505097927372e-03,3.156933325761297482e-01,-9.795037129451502622e+00
-1.770151658238582060e-02,3.126002270582531328e-01,-9.797869380590706001e+00
-8.246446060847612697e-03,3.161176382422091202e-01,-9.802130148157095491e+00
9.337069622762598359e-03,2.968749354238960914e-01,-9.794726484280717571e+00
1.859190542164311424e-03,3.097750504814056338e-01,-9.796483245824001429e+00
4.496968412263983861e-03,2.981568426485065038e-01,-9.809427178743700182e+00
-6.109749665399592453e-03,2.975469597937575594e-01,-9.793079958916885985e+00
-8.871711969785400428e-03,2.996745134881073636e-01,-9.788657547945211590e+00
5.573972611790611181e-03,2.855235095946210833e-01,-9.792576923066066641e+00
-8.661765462377660554e-03,2.984456404643553995e-01,-9.794108267414470603e+00
-1.063732859329858706e-02,3.127598028235587524e-01,-9.811506418105901517e+00
1.358573936273882801e-02,3.017294586656251720e-01,-9.788742786579392785e+00
4.006793317752830805e-03,2.882842025280350495e-01,-9.798729583100783458e+00
-5.217702042108867885e-03,3.019407789204187620e-01,-9.783313292399483885e+00
2.176438070794167127e-03,2.907151447914770870e-01,-9.794245975838897778e+00
1.875865698775377186e-03,2.844675485332204268e-01,-9.792870018906928209e+00
4.880739541606292191e-03,2.883312292876916150e-01,-9.797175520330698717e+00
1.878290250449881444e-03,2.969030622324456137e-01,-9.797408326214849694e+00
1.664274490644986754e-02,2.723171653094548228e-01,-9.780898864759985045e+00
4.293649231328700196e-03,2.829536845420489444e-01,-9.805456021200061656e+00
9.480932160430621120e-03,2.703819054976291381e-01,-9.794381287037326800e+00
-1.053111003093039691e-02,2.858351837498916970e-01,-9.780286999607673337e+00
-7.295951348751945030e-03,2.930817593065655480e-01,-9.795212809948191435e+00
7.480626575927788735e-03,2.756454835757694566e-01,-9.797777504980784258e+00
-1.007134786542635690e-02,2.766819077186263298e-01,-9.793938055378729857e+00
5.332140661838365766e-04,2.751414133453334854e-01,-9.789812409120104419e+00
-1.244849955363657584e-02,2.778891452715914201e-01,-9.799715863412933103e+00
7.568969214915578433e-03,2.693372913600591279e-01,-9.781581464789073976e+00
5.791934857859041066e-03,2.682636904490005580e-01,-9.805528433317428849e+00
-1.075600763641996506e-02,2.654267113986798488e-01,-9.793530013386993360e+00
-8.474183933240614711e-03,2.589766985061203175e-01,-9.788692300648369482e+00
-2.521236738591618905e-03,2.655668247922891023e-01,-9.795477938146126107e+00
2.401236313830374183e-03,2.795925535796665584e-01,-9.797763161782723884e+00
-3.302632281764843181e-05,2.605816795623750459e-01,-9.776949063086137315e+00
-1.728110794078006190e-03,2.672551318646695928e-01,-9.778812723414807451e+00
-3.491254750850137766e-03,2.625841470858314430e-01,-9.791017285946740145e+00
5.970967401861241967e-03,2.529414725614206882e-01,-9.805186442206906605e+00
4.526417400628003130e-04,2.554151637667304575e-01,-9.800747296208017545e+00
1.639712636449618122e-02,2.586362228694932264e-01,-9.783571379608785534e+00
6.204213156548480865e-03,2.584181542797319153e-01,-9.798192330413288076e+00
2.114262786019422205e-02,2.503907896032054325e-01,-9.790272752248398547e+00
-5.816773122817866896e-03,2.352552182895908395e-01,-9.799296937465246771e+00
-3.071665798036904253e-03,2.588388581448456960e-01,-9.811747982701321646e+00
3.432403207079737575e-03,2.498761286350094368e-01,-9.793906278494487694e+00
-1.263402967314943047e-03,2.387549681447657390e-01,-9.803671194763724728e+00
-1.671394566786671074e-03,2.452353266426964828e-01,-9.792485703969330046e+00
1.025983842564191437e-02,2.504627672797351545e-01,-9.814130677339493403e+00
-4.904973823205561849e-03,2.484844736516676200e-01,-9.791657145401934770e+00
7.324628285965734294e-03,2.385229463185974397e-01,-9.789952498332539221e+00
-3.125741356390943256e-03,2.430683482779999460e-01,-9.795524476918034296e+00
-3.428916231067869001e-03,2.516591415485660010e-01,-9.788172520635324503e+00
9.315356514624560311e-03,2.272221392253840899e-01,-9.790709895366388693e+00
8.013582258924746224e-03,2.536862244754959361e-01,-9.786780096744394086e+00
1.485645139680205509e-04,2.331533699493436862e-01,-9.802937996222159001e+00
9.996246703814411563e-03,2.354119991793997557e-01,-9.787512895384718803e+00
6.462634369630088776e-03,2.347886185608528964e-01,-9.800458838733169031e+00
-1.227182629224682613e-04,2.248364859215170597e-01,-9.793893014891931870e+00
2.708067919258411779e-03,2.170268668048470906e-01,-9.791911485849796648e+00
-1.896353560517138187e-02,2.340335356501155595e-01,-9.787016913747949687e+00
5.836847478748727336e-03,2.242334931281184107e-01,-9.802671266559565666e+00
-6.678144625275011029e-03,2.224446020855324058e-01,-9.795425253585266390e+00
5.643691621067038235e-03,2.245525936619626461e-01,-9.796484399756451467e+00
-8.957945203337844969e-03,2.126056153440864238e-01,-9.787402373156462332e+00
-4.674147109191415482e-03,2.262772055138007332e-01,-9.799529720243015163e+00
1.138257715196503567e-02,2.120513984756605408e-01,-9.802171724351012472e+00
-6.005923831273816960e-03,2.272252178157817826e-01,-9.794957682161083312e+00
-2.174774851853061158e-03,2.261710948668134713e-01,-9.780463936458652086e+00
-1.400750840112510893e-02,2.282210384627692823e-01,-9.798618803551212508e+00
-6.573391951075315334e-04,2.159017972561989851e-01,-9.793447614630906628e+00
5.359714775504472069e-03,2.214962180567474348e-01,-9.788482651356167352e+00
2.980546481759470141e-03,2.155395898787323405e-01,-9.790291882223343123e+00
-1.189082320625120363e-02,2.261640084770600856e-01,-9.791120709527012522e+00
3.494276617243017267e-03,2.065426809335156044e-01,-9.792471716338065235e+00
-4.280788931332001751e-03,1.990305535219769328e-01,-9.792374115897388265e+00
1.081548970164207882e-02,2.149736441066600612e-01,-9.793061666148616951e+00
-1.469259914366147571e-02,2.149683139483764271e-01,-9.788497696587095120e+00
-7.524208863163106640e-04,2.042597129427637936e-01,-9.795283221108315175e+00
-2.431300945736112641e-03,2.094245363428495210e-01,-9.786672058104741723e+00
-3.597068652538754942e-04,1.893572978532974960e-01,-9.804149856144571018e+00
-1.161311028128918753e-02,2.086085482395685919e-01,-9.794349349771795943e+00
1.034657041288757247e-02,2.048382387169206953e-01,-9.790696926649403053e+00
-1.202589271364940503e-02,2.118458150672590246e-01,-9.796991801449999926e+00
1.059011218484155574e-02,1.825602284783393869e-01,-9.795475539412999311e+00
5.310864983762596768e-03,2.049109606917832449e-01,-9.789918444421005006e+00
-5.370952894582565161e-03,1.959485229981255960e-01,-9.795470860798326740e+00
-3.071168122006876378e-04,1.879880100219598893e-01,-9.784552560932043619e+00
2.038043979799969690e-03,2.168308439824269129e-01,-9.802272953266367495e+00
1.317683810189897685e-02,1.970748858961513528e-01,-9.789080649871165107e+00
8.624333943664548715e-04,1.938646621001006709e-01,-9.793489530362441187e+00
1.015101351811785978e-02,1.951699042641096282e-01,-9.796868880565082094e+00
1.154660301306188394e-02,1.899199256008293202e-01,-9.802893305455665285e+00
8.963799369258056149e-03,1.928054494929959950e-01,-9.783685031302182367e+00
-8.384364379706906595e-03,1.871503361381634534e-01,-9.783094956130106823e+00
5.552490464286735129e-03,2.020228543083132378e-01,-9.799004836336532520e+00
-2.313385762925232372e-03,1.841396421528388172e-01,-9.799911891878743120e+00
2.312194657818875815e-03,1.919043187812477513e-01,-9.787149031111582076e+00
-5.762327607957621126e-03,1.998316673257170550e-01,-9.789139437496261920e+00
-3.652209249509662508e-03,1.847251125222745538e-01,-9.788014087747420433e+00
-4.810205323859545641e-03,1.901868683536506455e-01,-9.806620570500218292e+00
-1.330696877607187058e-02,1.703237793891653751e-01,-9.784809554283402377e+00
-1.750317181657124604e-03,1.868930184388949145e-01,-9.788861784362516971e+00
-1.200562370529008500e-02,1.827698501142485388e-01,-9.787255658725008800e+00
2.289189780814468000e-04,1.819329709423768149e-01,-9.794596295319546897e+00
-7.014283394142587988e-03,1.749861145255268702e-01,-9.802188413723344595e+00
8.512975726615979941e-03,1.735365579853466178e-01,-9.786332357785033409e+00
7.868912799396539023e-03,1.940231139098135271e-01,-9.788603399268128058e+00
-4.861675086154305025e-04,1.757464212200340048e-01,-9.791224908693862972e+00
-4.747631456849852423e-04,1.784675401189101673e-01,-9.777771563279703315e+00
-2.511603209358039858e-03,1.622393607631794632e-01,-9.770376239358007808e+00
-6.226617605923432351e-03,1.781090951919697130e-01,-9.808915618715561280e+00
-8.477668938832332891e-04,1.664100912763347706e-01,-9.796870135232994770e+00
-5.268795748508661898e-03,1.644433906147164670e-01,-9.807698792490651130e+00
1.627919587804512944e-02,1.746955589413415610e-01,-9.783972118862832801e+00
1.887714854804278808e-02,1.877741675179559200e-01,-9.812514246969218590e+00
1.454131706466656355e-02,1.649952602683321667e-01,-9.802322987745974103e+00
-7.048791766653160658e-03,1.705814384604244505e-01,-9.786579852910829658e+00
-3.434032282545980159e-03,1.750712588760519606e-01,-9.795550453247944489e+00
3.140987339115040768e-03,1.719271950160815021e-01,-9.793223209104777283e+00
5.987094886275626769e-03,1.634147309946742954e-01,-9.781659496224332173e+00
-1.037663834253674082e-02,1.653675475613494983e-01,-9.813886124349179951e+00
-1.205083110793476499e-02,1.572008835714966135e-01,-9.795067189889088866e+00
-5.539102563922693873e-03,1.641412928187322984e-01,-9.793206658995378788e+00
-1.931089568614583613e-02,1.569789520164255880e-01,-9.789143719282932921e+00
1.788997894213117902e-04,1.619378550640538650e-01,-9.795417649799658122e+00
-3.052690506639029171e-03,1.730416349046076663e-01,-9.779205973362630644e+00
-2.755569512550853136e-03,1.667400131033094923e-01,-9.797194687652584832e+00
1.483349712615868133e-03,1.660093969822649951e-01,-9.807287371316302682e+00
-2.780816737488625047e-03,1.620259559304364771e-01,-9.792776854618502114e+00
-3.137028264109989126e-03,1.597031710068188559e-01,-9.802987456288963841e+00
4.646640591874821348e-03,1.580049645853723039e-01,-9.802603363253940216e+00
-1.694139302524080544e-03,1.386886273405240899e-01,-9.795055517077571494e+00
-1.069459130631751458e-02,1.583266768119183654e-01,-9.803910032428158061e+00
4.553886789737662463e-03,1.527343997440885337e-01,-9.785427542459247618e+00
-9.458575611060091731e-03,1.646587468259994025e-01,-9.793423211035532816e+00
3.578978639065949919e-03,1.493572447260227420e-01,-9.805227363467345469e+00
-1.240955118229519934e-02,1.612593741325089869e-01,-9.796992677767494939e+00
-3.780052312455174472e-03,1.715697358659930283e-01,-9.811172811575948671e+00
6.035475382059142350e-03,1.427703658834695855e-01,-9.794228443236416837e+00
-9.876829989617723002e-03,1.373309110928949972e-01,-9.793609963430448317e+00
-6.587356844866071141e-03,1.562590166821518078e-01,-9.802404607859529051e+00
-4.809500475006532778e-03,1.459664563294643114e-01,-9.790098553198951947e+00
-5.395480013288126916e-03,1.549482669457496742e-01,-9.790662216048270139e+00
8.020245216349171716e-03,1.474931668687257114e-01,-9.780458183104304482e+00
-6.096543967115187687e-03,1.612955726686788049e-01,-9.790261245279692659e+00
-9.389013595352163274e-03,1.385222937543173771e-01,-9.802751918557740751e+00
-8.726381902357761497e-03,1.341956084521250536e-01,-9.785586597366748407e+00
2.935461892559830619e-03,1.376137047842075911e-01,-9.801137700056832713e+00
-2.470607768125773762e-02,1.411650380628673707e-01,-9.784488574687648210e+00
-1.296759562484473341e-02,1.387556353858299119e-01,-9.777463601962274709e+00
-1.612761341452384825e-02,1.403981071891496624e-01,-9.805202152417557215e+00
2.523313262857297679e-03,1.289517431137578163e-01,-9.787066850027821729e+00
9.953506279652173799e-03,1.460978267644923723e-01,-9.801272968123301510e+00
-4.891700327863571923e-03,1.410400099168667154e-01,-9.806909296432065659e+00
5.973882952016651947e-03,1.301922844353101127e-01,-9.788712891991123044e+00
6.090179302059368222e-03,1.298732988889000350e-01,-9.798863481616276516e+00
-8.524764791876687537e-05,1.269666970770967074e-01,-9.798989723220314474e+00
3.676481296875085385e-03,1.364765016259087693e-01,-9.797973235822176719e+00
-1.525238692059344495e-02,1.398814182307487330e-01,-9.790296974521297102e+00
1.076978960132815404e-02,1.287638818346961977e-01,-9.801159408817074592e+00
-4.598367863592156025e-03,1.404984044242843233e-01,-9.797202664805524819e+00
6.173731312083917747e-03,1.368995349168297404e-01,-9.793380291874459687e+00
-8.775505473775367313e-03,1.164877401317227085e-01,-9.783287523819666376e+00
2.701893532155832337e-03,1.314701812652870616e-01,-9.791453413417604779e+00
9.801196549379689177e-03,1.266438418625414619e-01,-9.808433096192187506e+00
-4.239178420854666784e-04,1.375397583092299592e-01,-9.799657636053527909e+00
2.918551184858844943e-03,1.325188294558897750e-01,-9.783597066276090715e+00
1.867937192056589105e-02,1.358809665335148076e-01,-9.789086940984326191e+00
-1.260143263269284438e-03,1.428939152321614392e-01,-9.799185939197091244e+00
-1.100134789782746501e-02,1.453882993272701818e-01,-9.806009642359883927e+00
-4.520788848876871983e-03,1.354316266379897438e-01,-9.790076976109725493e+00
8.674885499008933368e-03,1.387303919817526043e-01,-9.787462745419782451e+00
8.776288744577868256e-03,1.255038715355111245e-01,-9.785607421026092823e+00
1.340652964213408238e-02,1.216000786938270517e-01,-9.797935118357024464e+00
-1.526673417098575736e-02,1.155173815248868585e-01,-9.795448046210424309e+00
-1.294963882751008419e-02,1.283078243511832084e-01,-9.807720710169482103e+00
9.728770529764410591e-03,1.271230533259940232e-01,-9.795919591957112260e+00
-7.053237872337099652e-03,1.221184814117462492e-01,-9.801521118807375643e+00
1.167379884923365821e-02,1.248368159395962101e-01,-9.790639345421180195e+00
-1.660232144227196185e-02,1.246515080687383842e-01,-9.792865099942224205e+00
4.673330746426466488e-03,1.236015080119145654e-01,-9.798121356444822183e+00
9.426543514980288349e-03,1.187310456276530618e-01,-9.789385667816743464e+00
-1.125969148774664044e-02,1.115515293979210676e-01,-9.805630504862012486e+00
3.492481895413791695e-03,1.183512361936424340e-01,-9.794661376937835229e+00
-1.136509518287562130e-03,1.192488061085338474e-01,-9.806424070621035938e+00
2.039149238864093518e-04,1.183356483853110624e-01,-9.793164410751307614e+00
5.029296175947007772e-03,1.121559803765295182e-01,-9.799370853992042996e+00
1.256080594478053980e-02,1.170303626769362421e-01,-9.801299628660876451e+00
-1.415431039826531463e-02,1.069180926434120382e-01,-9.785248501306698543e+00
2.132515035869657696e-02,1.269707029406012544e-01,-9.787963098606619283e+00
1.572940934416467221e-02,1.300001415102655655e-01,-9.791027258799427813e+00
-3.012823365820052612e-04,1.141568059374568900e-01,-9.786634033800689636e+00
4.086644957233464756e-04,1.181669457225223846e-01,-9.778585800175171983e+00
3.700341175386012357e-03,1.161164050152149879e-01,-9.797919594124062215e+00
-3.168791043165562499e-03,1.283551768423889239e-01,-9.804890856394255394e+00
-3.665433491454198143e-03,1.049328884987656002e-01,-9.790463745585114452e+00
-1.053582984735560585e-02,9.452705755870141613e-02,-9.801916770168258353e+00
6.938231347236183816e-03,1.236462661026897641e-01,-9.789939296869254903e+00
-6.225052507176201226e-03,1.138088750968630214e-01,-9.779369248857234354e+00
3.421720568993312592e-03,1.057586565258105682e-01,-9.793958267930586103e+00
4.177544943942623767e-03,1.066910075865803026e-01,-9.785555096947611275e+00
-7.930911903675400693e-03,1.039897700031155586e-01,-9.794470209237196912e+00
9.875152107555410647e-03,1.118823261658404428e-01,-9.804768020780851856e+00
-1.512280713143062533e-02,1.074382114431510632e-01,-9.775416794002524057e+00
-7.466101919306076737e-03,1.187835044730558981e-01,-9.801488408208385295e+00
4.932618558665616965e-03,1.047974766093093257e-01,-9.785513460005745401e+00
-2.153881995015255804e-03,1.002660707409172985e-01,-9.780248456845310301e+00
1.084815408933378390e-02,8.706149662487862317e-02,-9.802650905128210468e+00
3.290500944767172503e-03,1.115659535719109030e-01,-9.789778142541422312e+00
1.154179939405167339e-03,1.021270186757283066e-01,-9.800537997322656736e+00
-5.493668491559333331e-03,1.177740177248019909e-01,-9.793482937437694602e+00
-1.774151564317464356e-03,1.117835046080845329e-01,-9.785051371545179677e+00
2.260829704031663053e-03,8.862603771737787017e-02,-9.803527780168023398e+00
-5.218064536501972744e-03,1.051477344682642118e-01,-9.785936546513809731e+00
-1.495950095509686979e-03,1.019554461391324884e-01,-9.787429462143567349e+00
-2.577744186395712102e-03,9.701395885896089977e-02,-9.794127560616276540e+00
-1.252487584455394022e-02,8.203447485283385521e-02,-9.791483820662531201e+00
-3.082236563267614325e-03,9.612272781523356624e-02,-9.792365646371777643e+00
1.712196035244342371e-02,1.119131933637871473e-01,-9.801649187418290055e+00
9.514646980998277270e-03,9.376383677760960489e-02,-9.796029886565200684e+00
-9.640711463415458510e-03,9.807623286748654023e-02,-9.796983573474008722e+00
-6.393263564124627811e-03,9.770831136096376490e-02,-9.803619106296912022e+00
7.288658994192663033e-03,1.143595345491614929e-01,-9.795550689516018039e+00
8.021763351550040277e-03,1.014834857934531626e-01,-9.795448299891287292e+00
2.156907754981803732e-02,9.047830972963082086e-02,-9.806164052430109024e+00
5.993967579120810553e-03,9.059020591659462662e-02,-9.807647832181636716e+00
-4.766100607119274344e-04,1.042550536841749670e-01,-9.795320344373118715e+00
-8.098436733726052661e-03,9.241656528633805656e-02,-9.790187014225020690e+00
1.902199439783980425e-04,1.061511449030065474e-01,-9.782500413312217091e+00
5.480636285596366536e-03,1.051165189963874924e-01,-9.789193798384003387e+00
-5.674425878805052469e-03,9.024817897151975188e-02,-9.803955362021378406e+00
-5.110193853176539687e-03,1.020066727425257280e-01,-9.794955319257583781e+00
-7.203409302189174752e-03,8.720676812863613347e-02,-9.804345023717024432e+00
-7.238417812298790326e-03,1.073827633049994901e-01,-9.792443220925346026e+00
6.341894467999508768e-03,7.261172703653542837e-02,-9.796446969627547574e+00
5.255055838351731581e-03,8.671687466186740745e-02,-9.816150457425553810e+00
8.786950210110403220e-04,8.272126579065959551e-02,-9.792991180948300567e+00
8.757211662364768057e-03,8.437478019176707089e-02,-9.802058017848255034e+00
-1.997053426499526604e-03,8.909654722828497242e-02,-9.801632166053263262e+00
3.097761488973652892e-03,8.854840648614918652e-02,-9.787815769604941707e+00
4.002657215736824849e-03,9.459797478316639419e-02,-9.791495267478001807e+00
1.392219719199560418e-02,6.993414419249388558e-02,-9.783270461987164879e+00
-1.153296809711798661e-02,8.540849733907442121e-02,-9.803260008413760218e+00
1.476818490318677901e-02,7.636402343189063746e-02,-9.805227633405548815e+00
-9.969342206417998106e-03,9.481224912939921479e-02,-9.784938566452188624e+00
-1.221867949609643789e-02,8.340754193379006087e-02,-9.800115104569936619e+00
-9.528525380439584170e-05,7.517098712342745737e-02,-9.782788034279246148e+00
-8.291185589700758238e-03,8.011896758547951136e-02,-9.804292328018476610e+00
-1.805227300659985670e-02,8.281765007896434161e-02,-9.787817386544052312e+00
-9.226889896446397420e-04,8.679252077177609936e-02,-9.791505829732525257e+00
-1.517330904382503849e-02,7.853641772020276968e-02,-9.803385638836761728e+00
2.256002144942353266e-03,9.078148791477388957e-02,-9.798949299052949868e+00
-9.853539676370372605e-03,8.768732289116347445e-02,-9.783749313313050422e+00
7.214939831528367070e-03,7.608524654275782007e-02,-9.798165561253100009e+00
-6.431456371155939641e-03,8.883488571076976481e-02,-9.811266421772934621e+00
1.166854535176882349e-03,6.953218660658584682e-02,-9.787915867728136377e+00
9.597915446759811703e-03,7.721783534623076484e-02,-9.794480978038469843e+00
-3.503313300431448903e-04,8.498948305431665295e-02,-9.791074737579695153e+00
6.401422197686110031e-03,9.037766890454965174e-02,-9.804700263207902111e+00
7.542152334223485577e-03,8.514967520649074917e-02,-9.813148750453608571e+00
1.162894457220715709e-02,8.262709133612713974e-02,-9.785193559438688737e+00
7.424282172871714920e-04,8.866721014856643324e-02,-9.809120519196296684e+00
2.206681764805143095e-03,7.101441245076969833e-02,-9.793353454014525283e+00
1.144244063709804089e-02,7.054894767699737557e-02,-9.794956057300716168e+00
4.732899193042984856e-03,6.579433960279243432e-02,-9.791677429771516117e+00
-5.390459632678300163e-06,7.954011925910171865e-02,-9.788681042592726200e+00
1.016557064775055509e-03,7.998772477192586661e-02,-9.813484302498395095e+00
2.178984505243364202e-03,6.975956058532209458e-02,-9.784867234631795085e+00
-6.172775053405278383e-04,7.938941162723582579e-02,-9.800170794821065456e+00
7.364708970525265814e-04,6.248362450382574651e-02,-9.800502766366635754e+00
1.144950129447766876e-02,7.674394940466341963e-02,-9.795773187479975164e+00
-1.293131557270087856e-02,5.923002186449269346e-02,-9.784885250345418228e+00
-7.338036653063399403e-03,7.739612035847201477e-02,-9.781982775040427569e+00
1.485170122452465769e-02,8.066895450386486754e-02,-9.787044680837006183e+00
-7.224663401951498219e-03,7.488550602209922968e-02,-9.792725822248980805e+00
-1.206865697991628796e-03,6.989754367380482392e-02,-9.793847517798846880e+00
4.337867123724158114e-03,7.516061379106571405e-02,-9.788887206007691688e+00
8.204264012365323350e-03,8.154775943568150220e-02,-9.786308114253355228e+00
-1.484472994000069802e-02,8.859394121420707813e-02,-9.799585955915354418e+00
-3.480626569266484765e-03,6.888813997619816498e-02,-9.808963749547695343e+00
4.950086949293018568e-03,7.607964025923090456e-02,-9.789097147397617604e+00
3.436768954624478192e-03,6.521541838787761614e-02,-9.791125618244457485e+00
-3.016870239503996118e-03,7.923223548839944397e-02,-9.791948387970382583e+00
1.416667276074290308e-03,7.293471542452452383e-02,-9.805552694793671975e+00
-1.714424133813509388e-02,6.899319165475696625e-02,-9.774652947313578366e+00
-1.099026222416625174e-03,6.323712596791419838e-02,-9.802807938591218573e+00
1.973595458451353132e-03,7.715918321824324910e-02,-9.787581942955487335e+00
5.223648827785632581e-03,8.122978903068485412e-02,-9.792486481477505222e+00
9.548301318828113574e-03,6.770975202847817620e-02,-9.791958672548734199e+00
-6.154991038771386556e-03,8.678066194451913851e-02,-9.796199960772234760e+00
-3.627419917245137265e-03,7.905082572111976624e-02,-9.792909694480687932e+00
8.434717563725491196e-03,6.253127750460822643e-02,-9.784558010550821194e+00
9.986091124621242904e-03,6.096095239674684946e-02,-9.789110457317073966e+00
-4.760470414041920368e-04,6.651821444526682947e-02,-9.795012537147663068e+00
9.041515905984755718e-04,7.676095460892842781e-02,-9.792412464142239870e+00
6.380731434383581785e-03,5.955745982379603148e-02,-9.784656876807435566e+00
8.278837399416554346e-03,6.483839685665955532e-02,-9.795702864971779888e+00
-3.890208870707891238e-03,6.661026636754831254e-02,-9.806614482396380339e+00
-2.050618391818926842e-02,5.543362892439734901e-02,-9.813034342316989012e+00
2.940888448285905368e-03,7.373298756680378430e-02,-9.800375001757108961e+00
6.721895616668498684e-03,6.573185385407680215e-02,-9.792305938576976843e+00
-1.167649976766897170e-02,6.133069846383645135e-02,-9.780625114828858102e+00
4.675881181620943766e-03,5.509781403089925034e-02,-9.790398694918650335e+00
-3.315652296525487853e-03,9.394704808522211237e-02,-9.794972118971921660e+00
8.047561859090739469e-03,6.115120933185511087e-02,-9.786053601845429384e+00
8.719234191241393567e-03,5.896233749466420204e-02,-9.789588116725871814e+00
-2.838467300350460115e-03,5.237924285306908706e-02,-9.793447686166725674e+00
-5.358823986307268469e-04,7.504456821108274056e-02,-9.788639716542922642e+00
-1.073187619704895485e-02,5.388708228239862813e-02,-9.791768390518138077e+00
-5.482363004798837189e-03,7.536010016865746231e-02,-9.789117405471360556e+00
1.325394227651500827e-02,6.002404278947603977e-02,-9.800578565933944830e+00
1.345331260437121479e-03,6.213722542082692618e-02,-9.782160794324024522e+00
1.698468678418386859e-03,7.431314669439967324e-02,-9.791881135939030756e+00
8.910910938291440389e-03,7.356629138612739982e-02,-9.796359161221040779e+00
-1.241004775491678057e-02,4.345011019132943159e-02,-9.813911020587120504e+00
-6.648395912993973478e-03,6.883651047129353551e-02,-9.801632078439611817e+00
1.073734909831317377e-02,7.189033938394435996e-02,-9.783618767767528368e+00
9.733217761697623982e-03,7.596263771658764985e-02,-9.800662860682741950e+00
-1.289314172418662202e-03,6.309374142635298943e-02,-9.793898211653150554e+00
9.400864433157705979e-03,6.981212048693756500e-02,-9.805599547795546655e+00
-7.518484654203612698e-05,7.208805258350843570e-02,-9.789031579727883070e+00
-1.990536772719459814e-03,5.349180868336343014e-02,-9.805875475312470613e+00
1.309743583665456956e-02,5.414480989707824016e-02,-9.797204118619953661e+00
1.999375667887771935e-02,6.189222803361271730e-02,-9.797935511049072232e+00
-4.085378526937882946e-04,4.020157441144685262e-02,-9.787913628685995349e+00
8.927617684207472468e-03,5.184155008561970590e-02,-9.782037666438409218e+00
8.676904215975559526e-03,5.533369706752655492e-02,-9.791901484768505526e+00
1.013447274484741492e-02,6.133041567048549275e-02,-9.792383604328632529e+00
-9.715630297258357742e-04,7.222640323681883689e-02,-9.790875700614911636e+00
-1.554098171534622208e-02,4.122560108692868014e-02,-9.803678618581299631e+00
1.278049731567718929e-02,4.119166068191192076e-02,-9.801775553953016029e+00
-7.357530305219922399e-03,6.472921264514676365e-02,-9.785615665115468431e+00
-1.043749457894649693e-02,3.783159453641218861e-02,-9.795082572121717845e+00
5.884112215325817442e-03,6.541399331874576950e-02,-9.794940650979402363e+00
-1.503054779724532879e-02,7.041025049711187311e-02,-9.789229945229129370e+00
-8.586636050308626977e-03,4.446571084420274100e-02,-9.803241522162531751e+00
-1.690131938470452923e-03,4.566436918360929076e-02,-9.802976904338743580e+00
-4.586547228815240798e-04,5.011718496379344301e-02,-9.799321500937393736e+00
3.344265565207573364e-03,4.649254899684394926e-02,-9.785583859037867427e+00
-1.253810015007003620e-03,6.288708022569516887e-02,-9.779697268339109684e+00
-1.182050181809504025e-02,6.957419092200251010e-02,-9.788967856013917057e+00
-9.399746157737332367e-03,5.843459350537553304e-02,-9.809604743668471016e+00
-2.015039850967841918e-03,5.876541492051642890e-02,-9.805245995740065723e+00
1.370008408420125313e-02,5.323955871295948938e-02,-9.789412086056934470e+00
-3.487563869087836367e-03,5.897328921168866478e-02,-9.803961803407737818e+00
-2.592480663907677837e-03,6.049022225507301453e-02,-9.796232488457393472e+00
-3.779119732164585091e-03,5.218897615707383114e-02,-9.790767687123757668e+00
-4.627861871958156327e-03,4.617459286866586188e-02,-9.791747086973909830e+00
-2.326249162879924677e-03,4.718454418203266165e-02,-9.793741214058799827e+00
-7.702974504242518852e-03,5.337278571427706009e-02,-9.791745691503143334e+00
5.450049364389251624e-03,4.304111937346814104e-02,-9.787551358042955840e+00
-3.436013910374595935e-03,4.625445370566781678e-02,-9.822790974989763058e+00
-6.951673688724455298e-03,3.816263238676121522e-02,-9.797416681653515980e+00
-6.288058064390791325e-03,4.585596142606351844e-02,-9.793428871750025522e+00
8.754983598256682945e-03,6.692411756680595458e-02,-9.778018378208058081e+00
-3.313859574545816684e-04,4.008191079155902503e-02,-9.785642403460673933e+00
6.359204208375012369e-05,4.862743316040010755e-02,-9.806769734893247659e+00
-6.759641579370676695e-03,6.167794156748213075e-02,-9.778903269832339262e+00
-4.248655194390798216e-03,5.323725755308048035e-02,-9.801973407063313104e+00
1.245069422927562279e-02,4.387689434257886073e-02,-9.794288399985461524e+00
-3.087738095331745997e-03,4.457282881605353908e-02,-9.797948327934125956e+00
-7.004451349372578690e-03,5.169540364954514772e-02,-9.795910154973682893e+00
-4.831641179945589046e-03,3.731850159710495968e-02,-9.804497779055676432e+00
4.461663679036520849e-03,4.990573645085789878e-02,-9.803488735883002292e+00
7.809819682211440947e-03,5.479917850855055284e-02,-9.805295208981332777e+00
7.332842229931248526e-03,4.278763680704173594e-02,-9.811027275566205574e+00
-3.465019629354413374e-03,3.864562700431951187e-02,-9.783940543220762009e+00
-1.166341815785321319e-02,2.964008484545084532e-02,-9.793912302424951477e+00
4.811683888411790073e-03,4.355653038138216498e-02,-9.789945560541303493e+00
-1.054457853489003741e-02,4.573869577555325638e-02,-9.779482696011385201e+00
4.470772439272638690e-03,3.651610091724474816e-02,-9.778937116424584630e+00
-8.789875966035261279e-03,3.952330703721855520e-02,-9.791385182046189684e+00
-5.883398169970557347e-03,3.895872638300502261e-02,-9.787643716460303622e+00
-1.346150654166561322e-02,3.908017397207436128e-02,-9.781318501005895172e+00
7.863752842251490668e-03,4.705581414046140082e-02,-9.803049204093273516e+00
7.370096928624560520e-04,4.093744412024727386e-02,-9.783886876525491161e+00
2.100941581899429603e-02,5.313685711249654248e-02,-9.794480405848508653e+00
-1.359647537870349457e-03,3.884809118923145815e-02,-9.778679395880034875e+00
5.736480470735653113e-03,3.381858812774007905e-02,-9.803919022883365031e+00
3.386001922970829567e-03,4.389074529281315057e-02,-9.799174438453853497e+00
1.513510940102560237e-02,5.057088323559414539e-02,-9.784331635596780430e+00
-1.547265409157173996e-03,3.411745111772088168e-02,-9.787369172554193142e+00
5.192278454587796917e-03,4.492819382015549035e-02,-9.800446643189969720e+00
4.284783007250580686e-03,3.553077821394098890e-02,-9.799059432604032338e+00
-1.946114750686682394e-03,4.494661575988193741e-02,-9.795710431718385180e+00
9.788678899383285170e-03,3.983126726113253580e-02,-9.790842928523334265e+00
-1.137969777409734854e-03,4.575851916102881278e-02,-9.793244393550262217e+00
1.355290575768494654e-02,3.948628633176050340e-02,-9.795861024639640036e+00
-1.241938469525207065e-03,3.394290287631557962e-02,-9.807883110902965385e+00
-2.491891084680587180e-03,4.553148696470319529e-02,-9.787698755466898604e+00
1.355264343750682034e-02,3.975046670904202467e-02,-9.796726392659252269e+00
1.616435785753594229e-02,4.645525223294191125e-02,-9.795676430697138670e+00
-1.964056019655036414e-02,3.068113891196298793e-02,-9.805169783687397000e+00
4.425902045146303150e-03,2.657574800893018618e-02,-9.803598438030856954e+00
-8.972055183449777552e-03,4.547541543155563665e-02,-9.803042782505363206e+00
1.577246919274144163e-02,3.157281627271038560e-02,-9.789366996090588913e+00
1.917541738750800154e-02,2.764968212672701264e-02,-9.792871975023114572e+00
-1.699601725823933962e-03,2.856938561541291083e-02,-9.791258986322501912e+00
1.275224378612457680e-02,2.630954111279883503e-02,-9.791957578795075889e+00
-3.423570617658431257e-03,5.497439558450339936e-02,-9.801549076528321081e+00
-9.624091870613984967e-03,3.723268066912526625e-02,-9.784182468771620123e+00
2.827303103407471149e-03,4.158330414938354175e-02,-9.815858699453844594e+00
-2.531883880612294745e-04,6.131158107341398017e-02,-9.793045089617912424e+00
-6.391563193947443454e-03,3.845688340825192952e-02,-9.803531595664782827e+00
-3.092610478927714738e-04,4.347325260432637756e-02,-9.798729404945001775e+00
3.837391664992624660e-03,1.817441364696332357e-02,-9.772355189284670729e+00
-9.031053999900013739e-04,3.406724958047004786e-02,-9.795902360784202401e+00
-7.834042266957866665e-03,3.716139375563592973e-02,-9.793796895485806786e+00
-1.905100351146132159e-02,2.904005396821384560e-02,-9.796231715880256985e+00
-3.368744001463108619e-03,3.121098413319637818e-02,-9.793201359354343438e+00
1.635433791653716565e-02,4.111907636739520894e-02,-9.784478272768707185e+00
3.321207972339152836e-03,2.915636820215592936e-02,-9.793684566620100895e+00
2.947443243270874477e-03,2.161549538362682321e-02,-9.798708504825047072e+00
1.544238463549495524e-02,2.057240498494975617e-02,-9.792630859509113606e+00
9.417567536816775012e-03,3.306134078678014954e-02,-9.795560303423478388e+00
8.421397139137689822e-03,4.138727428798814195e-02,-9.798241424111621356e+00
-5.290704537280014122e-03,2.241802972768587587e-02,-9.789497918608493165e+00
-8.425537610343659597e-03,2.411753241952719132e-02,-9.799278826835445599e+00
6.872764211523570317e-04,3.659633333704720437e-02,-9.807449811961539865e+00
1.239113117188259464e-02,4.306532260116917310e-02,-9.792438849153400682e+00
-2.481672758437270324e-03,2.928589601621586422e-02,-9.795604390281077656e+00
4.789027604058575249e-03,3.457137316954268791e-02,-9.796561310818001189e+00
-4.808161058598494145e-03,3.469134112316681062e-02,-9.789443987997383800e+00
6.476922967503905525e-03,2.997862274107444130e-02,-9.779368974851873730e+00
1.285979980852747229e-02,3.706523190770811410e-02,-9.799170493421422989e+00
4.177733383718811380e-03,4.286189397435200693e-02,-9.793687172662794538e+00
-1.389038252389146987e-02,2.633279587767963295e-02,-9.804507081688576875e+00
-7.614554992776643820e-03,3.802968245313151363e-02,-9.797274252706118958e+00
7.446904204411266409e-03,3.563216637572141909e-02,-9.788026943676126024e+00
-6.183509913877329074e-03,4.359050140410840324e-02,-9.789849614035723846e+00
1.324841045117317213e-02,3.168320083969813211e-02,-9.802939023881977576e+00
2.459325559941891084e-03,4.542396531253708319e-02,-9.783469923657117207e+00
-2.744188291561795810e-03,1.857845454771134969e-02,-9.795733640662229291e+00
-7.139432027700086392e-03,3.651856237153520285e-02,-9.805854908834911399e+00
-8.483600892948200620e-03,3.437474216784211500e-02,-9.797778555260491018e+00
5.341138181004857419e-03,2.877536907494723795e-02,-9.788413650400039856e+00
-3.153653560698944057e-03,2.367850010117153459e-02,-9.796199240962859989e+00
-8.466470556493133071e-03,2.775791766585979092e-02,-9.798649247430940790e+00
-7.236235938947198137e-04,3.506362231582559053e-02,-9.805972344535570429e+00
-1.200480086709139298e-03,3.106904695545911754e-02,-9.802000988030712847e+00
-8.688535894234222312e-04,3.351518702518949122e-02,-9.800865545181538963e+00
2.404251755475932725e-03,3.825666163524760188e-02,-9.791551987452004724e+00
-1.032041970385600207e-02,2.682114790809635857e-02,-9.792145038842749116e+00
-8.115301955941860504e-03,2.704372477693772758e-02,-9.777302545075777118e+00
8.649248141936521569e-03,2.878767928111714350e-02,-9.800103850780365278e+00
9.858589388074620249e-03,4.392783024548524429e-02,-9.795444003000849165e+00
-1.060388864466516382e-02,1.763208345486580453e-02,-9.786624472689439358e+00
1.085179575893315592e-03,3.728945964474172925e-02,-9.788229856198951140e+00
6.773918159178470184e-03,2.176302762129200125e-02,-9.807178053629293402e+00
1.692688328584730090e-02,3.714944096255790723e-02,-9.800543970943854433e+00
1.063006673616444112e-03,2.264089859581713479e-02,-9.792299082389313014e+00
1.008790561838026484e-02,3.863506891476740923e-02,-9.784913851482427205e+00
-1.947353221659670628e-03,2.888075916505776844e-02,-9.793828773987698355e+00
5.963624649762295506e-05,3.566578028176420334e-02,-9.776122381719908105e+00
6.427544975575317024e-03,3.335279738346228623e-02,-9.797151581644776286e+00
1.267204081406757450e-02,2.795392045567733977e-02,-9.796714278686422972e+00
1.196226167047994421e-02,3.753876276364340181e-02,-9.791310780533237335e+00
9.915143133017594729e-03,3.105373347882740831e-02,-9.793451813356634617e+00
-8.082380375192371432e-04,2.628479651106170253e-02,-9.788379722959300366e+00
9.820705678155784019e-03,2.580429883351317843e-02,-9.801866906718688099e+00
-4.617142382359083058e-03,2.834034394678312807e-02,-9.793164491228148805e+00
6.741067111330840272e-03,3.143715331221568626e-02,-9.790700826896985731e+00
1.026809079022229353e-03,2.865211070401715507e-02,-9.789162799399598214e+00
6.153153730951062446e-03,3.939119171715550760e-02,-9.791280961844865516e+00
1.781641607776372066e-02,2.500766791487978383e-02,-9.793195658983195884e+00
8.162427603540269722e-03,2.406167108255662795e-02,-9.799506144048427458e+00
-1.474790899410118213e-02,3.166719941794569892e-02,-9.791717008886195117e+00
6.435006376834886271e-03,2.451880182986385104e-02,-9.797562054204979276e+00
-2.380329991575872665e-03,2.697675355193317193e-02,-9.795040055715828586e+00
3.826559119388892862e-04,2.081028209611228072e-02,-9.792011550255917740e+00
-4.857467074616471717e-03,1.688823522012057599e-02,-9.810630291222052435e+00
7.623505950087396815e-03,3.253032538106814808e-02,-9.795814120372261513e+00
5.394873461831698434e-03,2.671302043464553189e-02,-9.792315176883555239e+00
-8.355513034771604175e-03,1.975009579908818674e-02,-9.800674357008464455e+00
-5.228035403502540859e-04,2.083959890207740667e-02,-9.793739320036833007e+00
1.155534311546041644e-02,3.372728804744052483e-02,-9.790489224071549756e+00
-1.729088567424578657e-02,9.803287290247823110e-03,-9.784754141749601786e+00
-1.156232120363972354e-02,1.766399457464493464e-02,-9.813126485248490738e+00
-2.754259481735478986e-03,3.410064718515082999e-02,-9.781435093796522651e+00
1.387103994784158467e-02,2.657305560597825189e-02,-9.791336796607835069e+00
1.499461922628245181e-02,8.271903506886581908e-03,-9.798589347474889522e+00
4.178251907398670105e-03,1.108329325977282752e-02,-9.800185675799932383e+00
1.285170214063201428e-02,2.457962896531641975e-02,-9.793269386111470354e+00
-5.078335540655792499e-03,1.889357447297580067e-02,-9.799561265651522746e+00
-8.335441541974731444e-03,2.816113794329980213e-02,-9.784929518691699357e+00
-9.484727803512071204e-03,2.809593180086681144e-02,-9.794040271396472264e+00
4.066027473948231191e-03,2.596725381915679018e-02,-9.796457507434586987e+00
4.966287356388875661e-03,3.323721671617985846e-02,-9.800563419995397041e+00
-2.967258966699410153e-03,2.359121163411373109e-02,-9.788872812576668636e+00
9.478029572657312857e-04,2.219973996109704528e-02,-9.792241557554863363e+00
2.236113813220975879e-03,3.280280660791795588e-02,-9.784370622677380780e+00
-1.795893601654084421e-03,1.268412069186356655e-02,-9.795045872943980214e+00
-6.699914779383144350e-03,2.757786773284252174e-02,-9.790511651902459533e+00
-1.098055774984885331e-02,1.492547896855758206e-02,-9.793063085457617944e+00
7.832949592659449803e-03,3.981538761442998675e-03,-9.795909277568430440e+00
-7.086634436052453336e-03,2.117420005687224022e-02,-9.798970451948520122e+00
5.042546447544715878e-03,1.707030722633802455e-02,-9.798982869543669594e+00
4.473574660718179948e-03,2.752730966135833596e-02,-9.788989765569928281e+00
-1.182164851682572168e-02,1.937742774053271416e-02,-9.796673254996704827e+00
6.387149167237734029e-03,2.371582206413060806e-02,-9.789249321967457007e+00
-4.182373340250305008e-03,1.868656404467797238e-02,-9.805906085005224426e+00
-2.288673479189329892e-03,1.636740041800207116e-02,-9.812875998257789334e+00
-9.459330523954152803e-03,2.013749746537228311e-02,-9.787262693872746055e+00
1.084550066397539127e-02,3.109691158851438791e-02,-9.786650112812001368e+00
-4.866468883066006265e-03,1.381978449182258255e-02,-9.802086392594816289e+00
1.665589237217597000e-03,2.218145633146329301e-02,-9.799298624670207403e+00
-9.676471664818209889e-03,6.838170422535256102e-03,-9.792993396132787964e+00
2.774097230318764602e-03,1.888286653603116205e-02,-9.801452132479289148e+00
2.686023024814189822e-03,1.192273181320723657e-02,-9.787891226258508937e+00
8.089786631496509450e-03,3.061582209055771497e-02,-9.791057535236287634e+00
5.524909092887623314e-04,1.234680203152784331e-02,-9.796960752270370776e+00
7.577550522769156693e-03,1.517254548203611150e-02,-9.789072647994007781e+00
4.224900624363171590e-03,2.015221028303888773e-02,-9.787013562068269223e+00
-1.267545281598024369e-02,3.260491019625054443e-02,-9.809655866637086774e+00
4.916253069144147642e-03,1.490542106656670730e-02,-9.801672244478131901e+00
2.558615079958015664e-03,1.247924652822541246e-02,-9.787359394321782702e+00
5.777954391765755329e-03,1.745298104143049034e-02,-9.808611673120344321e+00
7.630610429976929622e-04,1.054181479289869293e-02,-9.792958822322827217e+00
6.491306000776990090e-03,1.141955687698690408e-02,-9.801318494388619129e+00
-2.014739886318995046e-02,2.535814443873395108e-02,-9.794679576596596604e+00
-1.271732228070745867e-02,1.137990977153851072e-02,-9.779495039388194755e+00
4.492528420543671040e-03,2.041733510515423081e-02,-9.782607417416235407e+00
2.973965170730815191e-04,1.289484533027088903e-02,-9.808419368153554529e+00
8.997738495295818165e-03,2.291788772766673032e-02,-9.799732675177050822e+00
-6.680552641452005419e-03,2.218364692213092154e-02,-9.799458324602575487e+00
-8.754544532491398369e-04,1.681386064401139968e-02,-9.790893537109004896e+00
-3.959342883434481195e-03,8.202079258061706693e-03,-9.793495305603054035e+00
-2.179881016540417306e-03,2.681047689698535380e-02,-9.784797464184322280e+00
-7.974401219825897821e-03,2.174460914609360404e-02,-9.783856001229812804e+00
-4.493204135454272573e-03,1.189235725997637300e-03,-9.788122037958286725e+00
-9.604198411763796442e-04,7.709054895399412508e-03,-9.798442832788444079e+00
-3.476664726898412959e-03,9.432769720657922796e-03,-9.809876144364174877e+00
1.106669201653620593e-02,1.825670225569964167e-02,-9.777075284993991033e+00
4.011771227095996435e-03,2.069934685629788024e-02,-9.791461454744643689e+00
6.400795332888694830e-03,1.662970575473740956e-02,-9.802034067063086553e+00
-1.305337387342262595e-03,6.515826624565209182e-03,-9.792624488427986051e+00
8.920818177222407386e-03,1.710376601266502816e-02,-9.786299092115287479e+00
1.328808888884362542e-02,1.719388825956248354e-02,-9.795581996405392289e+00
1.229403378976157537e-03,3.737119005969700980e-03,-9.798472457108433176e+00
-3.995113179286162094e-03,1.405074476283420595e-02,-9.788421219617598368e+00
1.811343421968220112e-03,2.370773256476114976e-02,-9.795309852512884774e+00
-6.436650570784122581e-03,9.556084389377723920e-03,-9.799392896163945821e+00
7.451721329688128920e-03,1.144142531147734031e-02,-9.802465358375364701e+00
-1.151453304234474791e-02,4.601363024519992614e-03,-9.793652221117030265e+00
-7.808023763021387266e-03,1.771199554227984377e-02,-9.781447874024973288e+00
3.117145834392699016e-03,2.639136846484853305e-02,-9.805344043653899888e+00
7.563019317985732182e-03,1.640673505023747258e-02,-9.785871352780228349e+00
4.175531892333272065e-03,2.519122712682990081e-02,-9.799288940298451323e+00
-3.423554121603668418e-04,1.412697642248060895e-02,-9.792407252733857703e+00
-2.224660508544966039e-02,7.332560858182388119e-03,-9.800738916363215480e+00
8.947685399556964264e-03,2.614676489153653152e-02,-9.787573144004863224e+00
1.062742922283188562e-02,3.054364525773416855e-02,-9.801979548829473643e+00
-1.001835880395089869e-02,9.980000625523739732e-03,-9.808684172858896488e+00
1.159666096159724449e-02,6.534766661097052981e-03,-9.789132175915517209e+00
8.236493291755858301e-03,1.105814053927973648e-02,-9.799686554371701774e+00
5.847157446390181292e-03,2.790480693057073580e-02,-9.790951609599854777e+00
-2.051679169058917215e-02,2.116435958354823121e-02,-9.786354615950935809e+00
1.253931181465383141e-02,6.067433750669365758e-03,-9.796689906227138422e+00
1.316090226287805302e-02,1.397143259758350936e-02,-9.794066938386174925e+00
4.158858521480358547e-03,1.326541841519643557e-02,-9.798093660526683735e+00
-8.174946733890700590e-03,2.707868318905007343e-02,-9.803015339957259044e+00
-3.588376979649478618e-03,-3.146140330099623378e-03,-9.801335377914739411e+00
3.228609818500005960e-03,7.057683252135484725e-03,-9.804146112175311956e+00
2.500592309662211937e-03,1.518785909872869856e-02,-9.789768128044663342e+00
1.310174248641968360e-02,4.836403460626878190e-03,-9.790560048934738191e+00
-1.430850649158708389e-02,9.668890817789582010e-03,-9.777283377655951568e+00
5.921152415150365313e-03,1.445818740673444208e-02,-9.794102868836816356e+00
-4.036751235077269163e-03,-2.489560689099945545e-03,-9.796779136998409854e+00
1.186889769519933364e-02,2.125338601351192680e-02,-9.794900373663113058e+00
-6.454087803065931307e-03,1.787821765357605619e-04,-9.795756320881226387e+00
-7.090351383179722272e-03,2.149316553971014968e-02,-9.809670968746523556e+00
1.079728581641833246e-02,1.248203793435309107e-02,-9.788533701999964975e+00
8.370935541522081871e-03,2.275591509970779913e-02,-9.789280630206663503e+00
1.185340265459928566e-03,1.326971770121394660e-02,-9.789103716531217358e+00
-1.495769199245383305e-02,1.193480067658271755e-02,-9.799984709840112274e+00
4.723945331917885765e-03,9.826126287867678610e-03,-9.795746034773593180e+00
-2.356021067732782300e-03,1.450369086852410991e-02,-9.788260125930868583e+00
9.563959974810666564e-03,4.978348936702747113e-03,-9.795519639359721253e+00
8.119329231932381286e-04,7.592939105406861129e-03,-9.811925050941969317e+00
6.464104943692049014e-03,1.396168661062908989e-02,-9.785391239693636223e+00
-3.614409902145982606e-05,2.479149274832814082e-02,-9.810533824557042593e+00
-4.626779522114683220e-03,1.401318647667387784e-02,-9.786408970280323416e+00
3.253795142017244617e-03,2.055155625525569713e-02,-9.788142255584773466e+00
5.745904677694419274e-03,2.021739398717845720e-02,-9.813225445049532425e+00
1.441010138735437929e-02,2.402076389741426149e-02,-9.791856545800463607e+00
1.247335773255839157e-03,2.084759174233496992e-02,-9.789422145433432476e+00
9.830042451542484599e-03,2.556214003407012575e-02,-9.789904057583580510e+00
-9.312227148447720440e-03,1.875900313316330656e-02,-9.782163768439733786e+00
1.482336688113240590e-02,6.399926858574506855e-03,-9.787416909393805042e+00
-2.643822796453819228e-03,2.047360808271061344e-02,-9.795074326795273123e+00
-4.689122528038839645e-03,2.369627314082996955e-02,-9.779824751755144874e+00
4.049286345225886104e-03,1.622948190306004734e-02,-9.781692076349463250e+00
1.139793116844619453e-02,1.459804619228646100e-03,-9.797745654190437747e+00
-9.969271722192127316e-04,6.821908876891112465e-03,-9.799452031752675651e+00
3.918404382229051367e-04,9.533490365129675126e-03,-9.793818959020995862e+00
2.048929621246915744e-02,1.294527797388211887e-02,-9.792669773704188785e+00
-1.880246402914876290e-03,1.905181347989356663e-02,-9.808769933784482475e+00
2.894939454832258681e-03,6.003828888013811906e-03,-9.789947527806718952e+00
2.730449010256523305e-03,1.939137528530858468e-03,-9.779421045177482341e+00
-4.656962049364203431e-03,1.310036928631573908e-02,-9.809335787590375944e+00
6.675541517621015608e-03,3.236929452417989725e-03,-9.785447109576852043e+00
3.672956134941715578e-03,8.989988998168566003e-03,-9.777276738924001620e+00
8.993521386519681693e-03,1.862520910295318438e-02,-9.785096244607041527e+00
-1.376046153607119338e-03,1.768332808993095667e-02,-9.805345042671767430e+00
-4.994437228479876520e-03,1.892044345473874872e-02,-9.809602593559411332e+00
3.939113966723343900e-03,5.082724743742821072e-03,-9.795610581956642804e+00
4.119243851593663505e-03,9.805733812571111596e-03,-9.793273436587060843e+00
1.044771819440157290e-02,1.825018167605715544e-02,-9.791491319046642161e+00
-1.233461924283318868e-03,-5.370344658319670464e-03,-9.792531936880045862e+00
2.013026279144296878e-03,1.112894085445912187e-02,-9.799384245857465814e+00
-1.765521733193002249e-02,1.053211746119517636e-02,-9.783910826645449532e+00
-1.153491926412873693e-03,3.758369544190098485e-03,-9.796021709900951890e+00
-1.090104336517738227e-02,3.345500542213129813e-03,-9.794993536529762679e+00
4.171230256919982089e-04,1.689318715178150104e-02,-9.791168785401488606e+00
4.569457345845282827e-03,6.481539721000340731e-03,-9.784982477834493153e+00
-7.048101649701609545e-03,2.597527455340726404e-02,-9.795903697382874142e+00
2.437441666805774919e-03,7.341421103194278527e-03,-9.790406248511548171e+00
5.252801630169117060e-03,1.211828640920284417e-02,-9.790454971951584540e+00
-1.865796807165547369e-02,1.129223897143972165e-02,-9.787617645610618311e+00
-3.601765226856624893e-03,2.895417790702504296e-02,-9.794389020376804922e+00
2.814927297373372508e-03,7.850767810826981760e-03,-9.795005334948937659e+00
-1.284625707052718634e-02,7.475650182373862890e-03,-9.785706159252466563e+00
-5.345222897584970927e-03,8.752114886168674973e-03,-9.803520563476723737e+00
4.521705823030021734e-03,9.532277147169672740e-03,-9.786091049087291438e+00
9.340112519428111007e-03,-7.648249789216594180e-03,-9.794762789891434451e+00
7.138091002664879656e-03,2.462968384550263262e-02,-9.787545216928933201e+00
-1.918102238722842147e-03,2.937234795200257750e-02,-9.806467134598394253e+00
-8.154444559070467280e-03,1.946150549232707888e-02,-9.792928953860071672e+00
9.987200800897513137e-03,1.574987434135160375e-02,-9.783360214263375099e+00
-7.173157375236896343e-04,1.805782037554140920e-02,-9.790737185756825056e+00
-6.374449942610708585e-04,1.181629635449893412e-02,-9.779419806011347305e+00
-6.311111027979203481e-03,2.733922750580423944e-03,-9.793460329639771089e+00
-1.523524725394524888e-02,1.867203617574061600e-02,-9.800567343959949440e+00
-4.282144995250250150e-03,2.529518153510930054e-02,-9.802919127603196614e+00
1.289023224883419430e-02,1.957924942575402921e-02,-9.804813624682893192e+00
9.197221735143938995e-03,2.627009144136618207e-02,-9.803804962256799982e+00
5.008578167959869991e-05,2.440147693331018094e-02,-9.791991163597906223e+00
-1.176191596571180345e-02,1.363415357178134057e-02,-9.801256222793464090e+00
-8.498602971431118988e-04,1.149943107835063594e-02,-9.787293841863535349e+00
-3.049522715994531282e-03,-5.169184093713670783e-03,-9.778178421417976551e+00
-1.398212167085983310e-03,8.588318988561938205e-03,-9.790002067523561280e+00
-7.410627459664776220e-04,1.184625721704614387e-03,-9.803326741159320790e+00
-2.368930049023859185e-03,1.907442328016552974e-02,-9.801156697361113501e+00
-1.676412895777845300e-03,3.191581873625056603e-04,-9.792737505089865735e+00
5.478552578273168314e-03,1.132541602038574652e-02,-9.793630644519355499e+00
-1.212798651015113693e-02,1.337116993984007601e-02,-9.789882498471463634e+00
5.253192911419088916e-03,-4.893851668850179512e-03,-9.791023107093053568e+00
1.732712731256675243e-04,4.204505229657192443e-03,-9.798479017754411657e+00
-7.938505254082225959e-03,5.618569344054781534e-03,-9.794575951797654056e+00
-5.134280532027564112e-03,1.164100440591901361e-02,-9.792662843970241227e+00
5.518695032235447495e-03,1.248089808652689224e-02,-9.803182651300875960e+00
2.706119751644705130e-03,2.845872268981650827e-02,-9.793259245379291045e+00
-1.579296330201194511e-03,2.378448585098177220e-02,-9.783120285510999992e+00
9.652702384701138116e-03,1.007535957860459727e-03,-9.785237162419031520e+00
3.146799623587962121e-03,1.702570367484498859e-02,-9.789108225334350877e+00
2.545897973836792547e-03,3.135696274869937024e-03,-9.791132461030043643e+00
-6.023607992561487261e-03,1.655490367452618419e-02,-9.798405762333539215e+00
-3.073112494690040039e-03,3.967273616909798746e-03,-9.797865771191753836e+00
-1.646226463351673202e-03,1.431113740653487676e-02,-9.799152143651916447e+00
5.537293285905728335e-03,1.163662273990790329e-02,-9.797986299153915724e+00
6.581879615689800039e-03,1.747046355101733971e-03,-9.802701215737647189e+00
-1.002460755450350002e-02,1.920919273986651174e-02,-9.798482255557171783e+00
3.941906357175182238e-04,1.249678350413723285e-02,-9.778549701010694761e+00
5.460407193862325086e-03,3.502946076458009900e-04,-9.792468978988818407e+00
-1.206602578129972389e-02,-1.133767911672026868e-03,-9.795528079079749872e+00
3.381604421950644424e-03,-4.707252392510529598e-04,-9.794158202506245914e+00
-3.175006881243807710e-03,8.893362675157865521e-03,-9.789616809657388785e+00
3.895115445890992307e-03,8.174760983013548699e-03,-9.796977449945627470e+00
2.227875948354776474e-04,5.262629872693928845e-03,-9.800538268341099979e+00
1.442590884457158919e-02,2.088371038672276123e-02,-9.796440945440595627e+00
1.713963182299286722e-02,1.102020876483619100e-02,-9.792007170502373015e+00
-3.279637299844065444e-04,1.511878493589979486e-02,-9.785580444691673208e+00
-2.667468344962805379e-03,2.531328824422241289e-02,-9.792011829336797035e+00
2.560677369808687064e-03,5.430863584759292387e-03,-9.794928798466731479e+00
-1.123749369247971017e-02,6.091373718778250214e-03,-9.784607130876624481e+00
-4.917264999970395734e-03,8.802673514348458364e-03,-9.795834010369183886e+00
-5.265938357301489132e-03,1.193857967862440965e-02,-9.787836142110736048e+00
-1.349892421247371986e-02,1.072214776550366004e-02,-9.800237323889883001e+00
2.415227559863107262e-02,-2.725606075457501568e-03,-9.778525050351243308e+00
-3.969933407773247602e-03,2.078913250791524642e-03,-9.792626847237059451e+00
7.315283011698244485e-03,-3.920006302921824962e-03,-9.788370114923903742e+00
8.985034906037634925e-04,-1.181143151271714722e-03,-9.790705541668199174e+00
8.132382118416993291e-04,1.176200897503758627e-02,-9.785504610675783255e+00
-3.902440008457972137e-04,1.702854260328078018e-02,-9.794978825153071611e+00
-1.028318462556191380e-02,1.663569564889755270e-02,-9.805998047575155141e+00
-1.879212119509551240e-03,3.223200673890427685e-03,-9.808105814643543141e+00
9.089415338934181063e-03,1.841433386737631808e-02,-9.798844011239914664e+00
6.635562296067562191e-03,1.853724468011284238e-02,-9.798405741176180683e+00
-6.648632790954916820e-03,1.095286220217520264e-02,-9.789185368412548272e+00
1.655153745057102955e-03,2.144159846754955384e-02,-9.799241723916765068e+00
1.823916200645965199e-02,9.140322499812182297e-03,-9.780342634484544106e+00
5.402895498124442308e-03,1.711048459381112746e-02,-9.796517022272713149e+00
-1.606425956979150305e-02,5.644182475582270805e-04,-9.806638171771481893e+00
4.954433773871681421e-03,1.384807053658218198e-02,-9.792814309362157132e+00
1.131287634030915708e-02,1.438990571084004105e-02,-9.797409230664076318e+00
1.212741739926291758e-02,1.304928772508663973e-02,-9.800924317075443426e+00
1.761113974102384606e-04,1.215575246231989821e-02,-9.788272496387621757e+00
-8.299216945831456443e-03,6.771059839094020240e-03,-9.792409853342626036e+00
-7.436947630726315102e-03,1.146532403790446672e-02,-9.802618677338950093e+00
-1.113916225763193074e-02,8.002378117380561096e-03,-9.804542916748273385e+00
1.289954981449191462e-02,-3.395635486040022612e-03,-9.789105144428694061e+00
-1.413527476684140610e-02,-6.076725059384308937e-03,-9.799335485917316291e+00
-3.084849112458420799e-03,-3.649237205890195138e-03,-9.803255403117018929e+00
-7.773969127226901255e-03,2.739686754612281894e-02,-9.811478796804697922e+00
6.133573117203262523e-03,1.514682921352243986e-02,-9.804307701347774184e+00
1.639732143169216755e-02,2.239790574563728376e-03,-9.795851199393323938e+00
-2.637267199021739623e-03,5.270300328411258589e-03,-9.805895229463441609e+00
-4.235072099446626596e-03,1.045028600009442234e-03,-9.802646607400411938e+00
8.482386082052654347e-03,-3.253200622844888874e-03,-9.785192291075819782e+00
9.164200070717023333e-03,-6.055433833365448520e-04,-9.785681398291586675e+00
5.440549778979174821e-03,4.609571019744258119e-03,-9.800648503008604351e+00
-1.515364433330512045e-03,4.781834591000030596e-03,-9.788986160742867426e+00
-1.007417034232538540e-02,4.696814403895605006e-03,-9.774476687439401346e+00
6.125694057339293140e-03,8.982007646026097386e-03,-9.779428479994138002e+00
4.839955595328183403e-03,4.553810112900810378e-03,-9.784490664046495922e+00
4.582058781333970578e-03,-6.346073384867348746e-04,-9.803643593535232625e+00
-4.288492993947319934e-03,8.402338565527264422e-03,-9.786223496163982460e+00
5.890672202681507003e-04,5.600789728889386462e-03,-9.800961424001119582e+00
-3.425055667214541087e-04,5.263295118890704873e-03,-9.799998554001152939e+00
1.686715968536923928e-03,-4.070592100281808512e-03,-9.791063973414905419e+00
-9.169035210571800307e-03,3.545528150077061503e-03,-9.800561094296325493e+00
1.569327821808869095e-02,4.729725214889405477e-03,-9.788286584397123846e+00
9.887566620847802398e-03,9.310782614486841705e-03,-9.794346053667062790e+00
-4.415250047116191928e-03,1.731808376149122225e-02,-9.803111947705808404e+00
-7.387641956775032812e-03,-5.859458637892267334e-03,-9.793099234873164249e+00
-1.329452904348397274e-02,1.356497591435742306e-03,-9.791315924257812497e+00
-4.252532725739751121e-03,4.302082245295356551e-03,-9.795520385508789118e+00
-9.178716520304205928e-03,1.136120515412338688e-02,-9.795634436186210436e+00
1.071986941641233163e-02,5.655736358275611185e-03,-9.789662584692933933e+00
-1.003517640270106730e-04,5.087818169655165812e-03,-9.803018240813081263e+00
7.060486045909905800e-04,1.035622874123035518e-02,-9.797468548596292237e+00
-3.277787119952791945e-03,-2.610403658769892658e-03,-9.803759762145176637e+00
-1.635560405859613070e-02,-1.628871211302659015e-03,-9.794985906940230080e+00
-8.166736966205958084e-03,7.119920257818899978e-03,-9.785617397838121789e+00
-8.472234574855627004e-03,1.145557297750793291e-02,-9.791230502572803474e+00
-5.431136031033566812e-03,1.637929658474787664e-02,-9.800582516449420467e+00
9.553575218708813127e-03,8.800923718784159355e-03,-9.801246480079868206e+00
-1.616884917429602846e-03,3.392056406629768116e-03,-9.807783354422454636e+00
7.257515615516620068e-04,1.249901820000657096e-02,-9.793553588209462646e+00
8.596405701464381044e-03,4.683239438483899862e-03,-9.807664853079101519e+00
2.748768310924911643e-03,1.555717703582187514e-02,-9.795916866195476302e+00
-1.988211138546600986e-03,8.050586610306421920e-03,-9.793947292475237987e+00
1.280201712033964510e-02,1.662812652688372070e-02,-9.789687745469318969e+00
6.508312047153934875e-03,-2.039521385195897617e-03,-9.788263667696202930e+00
3.242554449527028371e-03,-5.562018991266288841e-03,-9.791206125047466458e+00
6.517373995352387234e-03,8.110119166574560404e-03,-9.794505362069454435e+00
-2.791252900841380367e-03,8.356457479089538301e-03,-9.777947338474366035e+00
-1.314584485913292480e-02,3.988673075701438912e-03,-9.785308662639401689e+00
-6.111496708932673966e-03,8.739050820003639586e-03,-9.792259649272617494e+00
5.824387618935965294e-03,3.470166626075629063e-04,-9.791901273303958320e+00
-1.507771010219875404e-02,5.041194174167240236e-03,-9.807762346270799014e+00
-1.035806946636885079e-02,2.116794083448344035e-02,-9.792766372120160767e+00
-1.385966392775639898e-02,3.311586691044015023e-03,-9.797266639808508870e+00
-4.204431290607557777e-03,-3.081217198829194238e-03,-9.810479375985529771e+00
-5.469050702936699773e-03,1.014927263729265353e-02,-9.795466051375452565e+00
-1.464759524187758850e-02,-1.243001627624851051e-03,-9.796925254875990419e+00
6.117386032821430300e-03,-1.249671402330259501e-02,-9.794637033425356520e+00
-6.301196108271412029e-03,1.778546541323848540e-02,-9.805991402009555102e+00
-5.724721997511579737e-03,7.716670733179266557e-03,-9.790410258486398121e+00
9.819007176102455194e-05,-2.248313534286134480e-03,-9.803865693763574640e+00
-6.330387966737998501e-03,2.934077236036346063e-03,-9.795636966893255249e+00
-4.934570125649755514e-05,8.858814040409583243e-03,-9.793520880195906386e+00
-6.981053178722972270e-03,1.311867423571541277e-02,-9.814857442103146923e+00
-7.056878837772567400e-03,-5.986658638656502419e-03,-9.812364171274724711e+00
-3.097021386671819278e-03,1.105735930978841638e-02,-9.811231671779554020e+00
5.570848317370160306e-03,5.145714371838634553e-03,-9.798908926597638569e+00
-1.107079922078912232e-02,8.036669579074923186e-03,-9.810925095925691508e+00
6.968280783603433099e-04,-3.149830334087781042e-03,-9.788663552653652289e+00
9.443274228376295071e-03,4.559106881768880404e-03,-9.795842826963054861e+00
-1.189314020205510004e-02,-4.057386352234525900e-03,-9.814300100120144421e+00
3.430122321680844147e-03,8.317250525548224721e-03,-9.800289623264598404e+00
-7.922205452606930973e-03,1.993241711721572933e-03,-9.780048502278811284e+00
-1.498946747495862736e-02,9.107335579269655937e-03,-9.810667580243151775e+00
-4.964298055260516450e-03,2.327459906158879654e-02,-9.796315470164435268e+00
1.927302579073253419e-02,-7.432179813021124945e-03,-9.789690020787519487e+00
-5.707469440672967471e-03,-9.695836316168156971e-05,-9.799039769289738189e+00
6.036505984081359973e-03,5.881484991463394214e-03,-9.786762432716624716e+00
-9.072342352761060547e-03,4.260150152331393034e-03,-9.789281149295495865e+00
-6.962145923354353359e-03,5.860195750311540663e-03,-9.796630182677597887e+00
-6.644606925269394906e-03,1.024363865864539626e-02,-9.786993421293386675e+00
7.973589376371343490e-04,4.958344618930680091e-03,-9.794043046686207177e+00
-3.189052419485072492e-03,-4.304307376878312684e-03,-9.791173902901489257e+00
-1.242698597469247233e-02,-1.834308792490536161e-02,-9.800480245454769701e+00
1.021319410657686375e-02,-9.341095210663558426e-03,-9.794550433353668595e+00
-8.456618511557751402e-04,1.113276725254020404e-02,-9.808780561187752767e+00
8.703229842589763413e-03,-3.392172822464799113e-03,-9.802153300203864106e+00
6.165525989981631219e-03,-1.442244938764851089e-03,-9.777425268506130251e+00
1.549861367971355026e-03,-3.855733979072059614e-03,-9.800806089787640119e+00
-1.415951330749957299e-02,9.399028696751238546e-03,-9.789796011106984608e+00
1.472888412303099623e-02,-9.223414144866739356e-03,-9.799182459652804766e+00
1.232420517550446640e-03,1.340863372887067528e-02,-9.785212006298577236e+00
4.684608024079426648e-03,-4.771584912088535496e-03,-9.804431839456034581e+00
-2.228890406572060431e-02,-3.872727424170492420e-03,-9.794473758057090862e+00
1.629985322374284196e-03,6.682467595308562956e-03,-9.800737838239976796e+00
2.008691600662678074e-04,2.518818677589333959e-03,-9.794115700242173261e+00
3.372143795966347276e-03,1.067400877136225230e-02,-9.792337146493036215e+00
4.671618563758384371e-03,4.718426625845983935e-04,-9.793997637624377361e+00
2.986312878991110881e-03,2.848533372875596166e-03,-9.803527976122481391e+00
-5.890379776948805046e-03,1.145923637620168550e-02,-9.797302125079747626e+00
1.469289407190489324e-02,6.468828632895675355e-03,-9.787832987037935695e+00
6.975399896839441219e-04,4.970278386982077308e-03,-9.789981141577481338e+00
-8.277527363944982893e-04,7.936100120555270379e-03,-9.790771167751234572e+00
-7.578072826268662798e-03,1.174607816652306277e-02,-9.781799924513871147e+00
1.083575020443763859e-02,7.819262013471184672e-03,-9.786886702996310916e+00
5.251037225884825667e-03,3.606489674704955583e-03,-9.804929574379094959e+00
-3.678225402990846233e-04,-5.075177265357177364e-04,-9.795840873724499076e+00
1.093218280822805949e-02,3.361531206403227910e-03,-9.790057776587667959e+00
7.834248576193051858e-03,-6.498033861590639393e-03,-9.788733305677505214e+00
3.794110746412391374e-03,2.006332254524083314e-02,-9.779253741433116431e+00
-8.388781705403459271e-03,7.487819809180399494e-03,-9.813525523115259830e+00
-1.025548472086739923e-02,1.350130416241554498e-02,-9.787693236195899260e+00
-1.165944084902104452e-02,-8.526722963637200017e-03,-9.798099948228802702e+00
1.271388773456986337e-02,-1.439809568272843072e-03,-9.802462699524760126e+00
-1.910065341486107474e-02,3.860891493524403612e-03,-9.786531232616590970e+00
-7.765542610336175974e-03,4.170255127778768785e-03,-9.804862012445154207e+00
5.882524487455210397e-04,2.956606681449664570e-03,-9.790455273816535353e+00
-3.727047873796221023e-05,1.377838637920043158e-02,-9.796272635488486813e+00
-7.636938868448477427e-03,7.085120495079204501e-04,-9.795517532887231482e+00
-4.758306014377551574e-03,3.152146589107030286e-03,-9.805610224053110002e+00
5.565325115716425464e-03,-4.863856601643553289e-03,-9.788089969179702976e+00
-6.113005673018699279e-03,-6.827881405587285166e-03,-9.788811466360703761e+00
4.339703557708836021e-03,2.162062801101893167e-02,-9.794622545402249969e+00
8.093056972978249566e-03,1.323182775697194502e-02,-9.795380427554899683e+00
-2.050843168262243485e-02,-7.055750118902933896e-04,-9.787418239791657371e+00
1.056395145554753050e-02,1.303370036726659437e-02,-9.806074494584125389e+00
2.539954466603227385e-04,7.770995586146429296e-03,-9.781037793879518105e+00
-1.213059055939635922e-02,4.120936180816640697e-04,-9.813998187311346655e+00
-9.262166875998649549e-04,7.803466463721209223e-03,-9.801257497218255565e+00
4.846619467013740974e-03,-3.558886263101724689e-03,-9.807124781756334286e+00
8.011532701011335814e-03,-1.838922230932098743e-04,-9.788690521182187965e+00
-1.360022834766820392e-02,4.402072037924805586e-03,-9.797497671061176305e+00
2.769347762656123712e-03,1.193406732200534212e-02,-9.801449981327776229e+00
3.208616603288809606e-03,1.073133791920161811e-03,-9.802495463034530232e+00
1.387148058639390072e-02,-4.316407475625543694e-03,-9.789241593137065323e+00
6.574283284454893878e-03,2.139136989740438293e-03,-9.798928907426450508e+00
2.244808140588896528e-04,-7.560087005330576315e-03,-9.796145708534728769e+00
3.138593122658015107e-03,-6.736084945827938361e-03,-9.798525940356741515e+00
-9.095957688711152345e-04,-8.371380310593432364e-03,-9.792804946288589107e+00
-5.803663621597329953e-04,-1.598590171253229039e-04,-9.791926683593388248e+00
6.865507216799095896e-03,-7.066322283843096477e-03,-9.784993610613025083e+00
5.633560293450884382e-03,-1.328090628129901044e-03,-9.794877846951544953e+00
-2.298318867787025547e-03,1.586447592703759540e-02,-9.790637244009792184e+00
6.605037169287405509e-03,6.063894078064378974e-03,-9.795929998264586658e+00
4.790597027828758132e-03,5.047888742689457184e-03,-9.812126816748248714e+00
6.522246226803881004e-03,-1.686321525274215791e-02,-9.793259745283760864e+00
9.321485507520627101e-03,3.737136489259208945e-03,-9.784644266019602910e+00
9.412923912426769679e-03,2.810293164105330185e-03,-9.793900883845783056e+00
1.602541280484750738e-02,6.006696451424004685e-03,-9.797835824783236447e+00
-3.057959015694617332e-03,1.017291389817186545e-02,-9.800615824747632487e+00
-3.283622802475372107e-03,2.033333986341572669e-02,-9.798560521439439341e+00
2.676501217169655056e-03,6.547922552400404356e-03,-9.801861786868242277e+00
4.793167446250102062e-03,-1.039208488874230306e-02,-9.805792033673563779e+00
-3.734726264054004201e-03,5.079413022815373359e-03,-9.806669512686479351e+00
3.957324828742814736e-03,4.016301584216612486e-04,-9.800459969691919682e+00
-1.894381181754714680e-04,-8.862867051535276014e-06,-9.810241821984831745e+00
1.505425636973600940e-03,7.958564033840759624e-03,-9.795950917692668014e+00
8.339746986363304497e-04,-1.362186952022738720e-02,-9.802788084297121785e+00
-1.722015258211573308e-02,7.756677440096289289e-03,-9.796738515121131030e+00
-7.077165548932175601e-03,-2.035576725579781032e-03,-9.787131287462599971e+00
-3.898532795088109626e-03,-1.575316085690856537e-03,-9.786282697984910683e+00
-2.210017640247336802e-03,-1.862271965930876062e-03,-9.778134179227583545e+00
-6.417573435789437723e-03,-2.014308671261442335e-02,-9.806233372951288274e+00
5.334904881026358327e-03,6.510918916865659004e-03,-9.805208654904751242e+00
-7.097318757147584242e-03,-4.532684714257185013e-03,-9.784769736005602070e+00
1.088069271642476236e-02,-1.335751170950401877e-04,-9.793531077464431078e+00
1.449123925770166551e-03,-7.734624386458289688e-03,-9.795036007363121300e+00
8.348352355157427629e-03,5.449288394370063564e-03,-9.792373491770632654e+00
-6.104570987544739695e-03,1.092145478580005408e-02,-9.785602717569524600e+00
5.186653911715193195e-03,-6.533503989298408351e-03,-9.796833527395925501e+00
7.898729148700253666e-03,1.678323199658393779e-03,-9.798224572144258460e+00
-4.569303125233974486e-03,-3.099651466352960297e-03,-9.790111394780133480e+00
9.061363584820068470e-03,7.641938056957399764e-03,-9.794972053809006596e+00
1.880072913329516610e-03,1.416350745875934181e-02,-9.799282351750003173e+00
1.625428192989139542e-02,8.973619607703710657e-03,-9.801036700690804793e+00
-8.480406077330275225e-03,1.437249551819683169e-02,-9.792143213662761525e+00
-1.279412627786068700e-02,9.279616456622941795e-04,-9.805970913244776099e+00
-1.666259369648670464e-06,6.075255474172341907e-03,-9.812253508992537121e+00
8.963401043081280911e-03,7.929317060831430133e-03,-9.785574220554417835e+00
3.811939303851054426e-03,2.035943773215632274e-02,-9.799850118938330468e+00
8.163047618951892875e-03,-1.750923071941818537e-03,-9.806923349326817529e+00
-1.343516819702160470e-02,3.488206869549515497e-03,-9.805334860241913475e+00
5.677001111102893474e-03,4.710486480363118914e-03,-9.786493088014452724e+00
-9.799849392622673430e-05,-3.223246606516549147e-03,-9.806370438690567681e+00
3.191818567925589628e-02,-4.650111665652741436e-03,-9.797023083774742958e+00
6.575356709270474033e-03,1.361835344410675455e-02,-9.805569631551771081e+00
2.745381722646902034e-04,3.148804798876253183e-03,-9.784934522356936171e+00
-4.953696804854580173e-03,-4.289172464065542888e-03,-9.795091511382080895e+00
-1.052134436450240934e-02,1.151636689816886230e-02,-9.798730946056641855e+00
6.730889847465218977e-03,1.340400156527141347e-03,-9.808184530287514136e+00
-6.969654097444257131e-03,-7.866676344518899050e-04,-9.790100084125207047e+00
1.065825972634501170e-02,2.813511248627725923e-03,-9.789904202138455247e+00
-3.679168222958173213e-03,1.198348856575844404e-02,-9.792632415878761876e+00
1.867740713297907224e-02,-2.257887580099413906e-03,-9.792405156474536909e+00
1.483802915211846407e-03,-4.223490659478336406e-03,-9.801115081314915045e+00
6.086325540929383819e-03,1.071483450747249015e-03,-9.785491948845624677e+00
4.032359280790359288e-04,1.668573126402315499e-03,-9.796204446068506044e+00
-7.675029773977954523e-03,-6.497887888502111228e-03,-9.802485287851951057e+00
1.000976221423164952e-03,-1.841374037472295021e-03,-9.806606537370141652e+00
-1.480629896923696225e-02,-1.732783029746931894e-02,-9.792341452378792610e+00
-1.198552498425231941e-02,-2.164918794321644968e-03,-9.791792884460814861e+00
-2.996824752400809554e-03,-7.391432020188271057e-03,-9.789616177436409217e+00
-7.853123636661568999e-03,-6.005912620301425212e-03,-9.784370281965376392e+00
7.828181518571132244e-03,2.969138181602779328e-03,-9.785854230035919699e+00
-1.230589595120004740e-03,-2.294632872146499560e-03,-9.805022340643205325e+00
4.307943781301114793e-03,-1.375980873039953090e-02,-9.791187499952467732e+00
-7.143678693150831748e-04,4.348487550843176466e-03,-9.781698442920484737e+00
-7.716286957873044056e-03,3.311477816716213492e-03,-9.791242616449862268e+00
1.078949859022651080e-04,5.699514057465286145e-03,-9.788394282741567309e+00
-1.198610270261297669e-02,-1.143575557378242492e-03,-9.784937903668353698e+00
9.962320785196003906e-03,-3.603695308523426066e-03,-9.799539797482880843e+00
-3.144123113752314395e-03,-3.015651024370040109e-03,-9.788348067936970764e+00
5.053903257788139140e-03,-1.224733488876604982e-03,-9.789338224210304418e+00
-8.048866468117246145e-04,-9.944398953627033369e-03,-9.795564398865574063e+00
1.786747987125175642e-03,1.123597912701367399e-02,-9.789887618592892693e+00
9.975380861942070507e-03,-1.566316982079254613e-04,-9.802560454371077370e+00
-8.457611260816271220e-04,-6.944974201526576268e-03,-9.803315618256737807e+00
9.555853975869096906e-03,4.048948741697819612e-03,-9.784840738835383078e+00
2.252403496095567448e-03,6.014719746313402539e-03,-9.794210673969297787e+00
9.981906786492437608e-03,-5.818682116844921259e-03,-9.796792967633409788e+00
1.264123399305363323e-03,9.964537141630156261e-03,-9.783274552074036734e+00
-9.123930407979137167e-03,4.219288102188092915e-03,-9.792124907650016752e+00
-1.013503290173276179e-02,7.825464643505711249e-03,-9.802842255327865573e+00
-1.142252448709452778e-02,1.851333274628505499e-02,-9.802514994852263186e+00
-5.095818868260082110e-03,1.191366423862035701e-02,-9.787993254546716315e+00
-2.662062365606610286e-03,-2.370564239798673457e-03,-9.775081410354598432e+00
-1.334937638362881885e-03,-1.216575489473303330e-02,-9.796900065454320128e+00
8.016748504520290535e-04,5.019991590537930745e-03,-9.782726076664458148e+00
-2.322883905199433618e-03,-5.158394149911465359e-03,-9.792542720639747955e+00
-7.249106287462783564e-03,-8.257372374842647175e-03,-9.813754103516329153e+00
-9.241118709127351880e-03,-7.504614224422417879e-03,-9.783468940005034753e+00
-2.043125483085611246e-03,6.478250985679122158e-03,-9.796200131622008200e+00
-1.195058554423708910e-03,-8.040439693552938957e-03,-9.790000320442635129e+00
-1.139202971842037670e-02,-4.537281944238459770e-04,-9.786340945660501944e+00
-8.465887691920236449e-03,1.110174893009120006e-02,-9.798122301197299322e+00
-1.038799893021541756e-02,4.944853873988450110e-03,-9.780731442713305412e+00
-1.184428321241187514e-02,-6.048561755798717923e-04,-9.789190275661777463e+00
-4.498876695183151239e-03,3.432852438387771089e-03,-9.786447176934785830e+00
-6.724306683582029730e-03,-1.035685979197949885e-02,-9.806499775177432099e+00
7.988391865488803090e-03,1.109704670505049992e-02,-9.799017968958517955e+00
-1.134214507846475865e-02,1.347083864173764887e-03,-9.779097533505487050e+00
1.267107981127786435e-02,-7.353793706933987005e-04,-9.795668486598396285e+00
-1.845915246978873606e-03,1.623210788620441103e-02,-9.786937227849980658e+00
-6.179140262690600675e-03,5.599635145585268176e-03,-9.787543507447427515e+00
-1.623450535128009506e-02,1.101558186439517868e-02,-9.798237854675557301e+00
2.593024547316312087e-02,7.399824940434035492e-03,-9.799392793397482038e+00
-1.288554355369378283e-02,7.501649217306013452e-03,-9.794060561072598148e+00
-1.732729027552803048e-03,8.879049558280997789e-03,-9.800633790391509947e+00
-3.407778955330704497e-03,-6.955553489110200861e-03,-9.786292238328675452e+00
1.234346051325029177e-02,-5.470051400599351514e-03,-9.798386936472221365e+00
4.243281846743092098e-03,1.077918997187910476e-02,-9.788064195321888761e+00
-3.252200172833821269e-03,9.408413966792948668e-03,-9.797295963958971399e+00
-5.219363387899613772e-03,-9.149778380804385325e-03,-9.797776158710306049e+00
4.477436540178125757e-03,-5.142609988122544100e-03,-9.789546076258497820e+00
-7.006891689836467797e-03,9.239119552985449596e-03,-9.799273050679950359e+00
7.917656430530554262e-03,-8.536928791923855536e-03,-9.800856762444384529e+00
1.067736647549360346e-02,1.683460475981358615e-03,-9.804708924919101065e+00
-1.347277439614772213e-02,-1.717106152727508953e-02,-9.785958474149120789e+00
2.339857680326074430e-03,-1.682435495879708092e-03,-9.795113444441957640e+00
-4.988808620183233719e-03,1.383278725053140512e-03,-9.791850491709883642e+00
-7.777507780478497387e-05,-1.406839057761280314e-02,-9.791449160588518552e+00
-5.834998734063729167e-03,-3.721594906214325312e-03,-9.795878608634993157e+00
7.046851096273855017e-03,-6.334350506470121794e-03,-9.793718757195625457e+00
-6.011744387579901622e-03,8.881796161355646688e-03,-9.812124050746735549e+00
-2.061296349237315070e-03,-7.459663654421530045e-03,-9.793576011695948935e+00
-5.657217205675068531e-04,6.336916552683494186e-03,-9.791048656236924330e+00
-1.113582057953774055e-03,-1.103345336865474077e-02,-9.791593745021193840e+00
7.032246476928676916e-03,-6.162717759164240000e-03,-9.782663674827059452e+00
5.362915821280629658e-03,5.329148309677917555e-05,-9.812820819577989795e+00
1.558736456444321204e-02,-2.725105910893828309e-02,-9.794530487181637213e+00
9.027011515532460187e-03,-3.115029805029032647e-03,-9.810019357532404172e+00
-6.324504577282722816e-04,4.678910372222669454e-04,-9.803971050249549180e+00
4.414782602048787467e-03,-8.243543829135327114e-03,-9.785759477359562197e+00
7.879014721284769915e-03,9.555567761630704305e-04,-9.796726215426874163e+00
8.231238741317098082e-03,3.159084247070315099e-03,-9.792190687758766998e+00
6.588952725514555034e-03,-6.585917924017840701e-03,-9.784610969655297197e+00
-2.106342278284500783e-04,1.142731402981208948e-02,-9.795141850556653651e+00
9.714487031124217735e-04,3.610588539430055390e-03,-9.798799354408359363e+00
1.550374433021306725e-03,-3.454678788770717667e-03,-9.801848982857601200e+00
-2.419376111557114753e-02,-1.678119213779699507e-03,-9.786240403560915624e+00
-2.361557113750266824e-03,7.369732011586688572e-03,-9.789214591846963742e+00
-4.111286580247608229e-03,1.946780207876406404e-02,-9.788280710740895785e+00
5.826521547763125093e-03,-1.123509831660964020e-03,-9.801950698998885159e+00
5.958269307877662145e-03,8.902915958561567755e-03,-9.801248834572875879e+00
1.961553664252428664e-02,1.581042364468032745e-03,-9.814784008135482907e+00
-4.488552445954900431e-03,-1.734447573148219929e-02,-9.797472425453859657e+00
5.502745592062142227e-03,1.180273235422325470e-02,-9.799405886596282755e+00
3.015913980883010506e-03,5.522647451717353946e-03,-9.796595661628867191e+00
8.379885706937909365e-03,-1.471613675519907807e-02,-9.808888285019211395e+00
-1.487812812813010506e-03,1.152418449882627004e-02,-9.794074260977899016e+00
-7.477479033651528162e-03,-7.208564916809394665e-03,-9.786657908080680812e+00
2.367812297314133337e-03,4.838521318003110097e-04,-9.787602114565766342e+00
1.490906128667288154e-03,-2.174204521288487530e-03,-9.798419182940969918e+00
5.087966457748943974e-03,5.342098093357745998e-03,-9.791218982653925096e+00
1.324152148923040881e-02,-8.820167615166399008e-03,-9.788592526748271183e+00
1.539901028959095135e-02,8.458326817682092560e-03,-9.801155686305206061e+00
-1.416721529807300241e-02,-7.947352123258710072e-03,-9.803333181421455933e+00
6.041371950303558308e-03,1.663467208975690989e-02,-9.786869073451875067e+00
-4.108482960639687695e-03,1.329732398928851721e-02,-9.789899308868257322e+00
-3.423836571372565127e-03,1.789229021909561484e-02,-9.786947389012551568e+00
-6.510766219064714581e-03,6.374402163069132349e-03,-9.789992555398770335e+00
-1.976101720209861873e-03,6.075666765939539624e-04,-9.798098992568291976e+00
-9.966497247568810447e-03,-4.965687332125800699e-03,-9.788470600505565500e+00
-3.391687776914486738e-03,3.883319714456904756e-03,-9.774873039838270827e+00
-1.172162984318701691e-04,7.370115464360026993e-03,-9.790514465164955382e+00
4.566571054821453321e-04,-1.828954864837496752e-02,-9.792641656769605518e+00
5.252875655175239097e-04,-1.602150123955791913e-03,-9.795638434593806565e+00
-1.418000371477715592e-02,1.567539901933588751e-03,-9.786485111802775805e+00
-1.500312993928686750e-02,-7.100527452841376951e-03,-9.795251238233188218e+00
-4.851137969720196660e-03,2.472360570319976410e-03,-9.786562523842532002e+00
1.173279307086878137e-02,6.732153013834112076e-03,-9.788314699549843567e+00
-1.829900968202633274e-02,-5.625738561641426862e-03,-9.781281257126620332e+00
8.764105413324055002e-03,-2.104512887510679581e-02,-9.791754083764704575e+00
-2.838150401744753571e-03,-1.210872384099829883e-02,-9.792321096813498826e+00
-2.012782906608607484e-03,1.836749886746904398e-02,-9.804837519741196772e+00
5.874804524261797133e-03,-1.475765183251026742e-02,-9.789138429193922519e+00
1.138743182604840757e-04,-4.910171902780981548e-03,-9.779726413102313387e+00
1.001293743969726771e-02,-7.199558250616123339e-04,-9.797036613805079952e+00
-3.997843535218827647e-03,2.071324564551632261e-02,-9.777424078755291958e+00
4.280719783452631433e-03,1.149871155353126423e-04,-9.784657185112235922e+00
1.191172098184021134e-03,1.052059323675083070e-02,-9.797885607109295236e+00
6.978523414485667507e-03,-5.781344021223022364e-03,-9.786612000069139228e+00
2.543455002745624929e-02,-1.624612231477968191e-03,-9.795816934659523412e+00
-2.757366788679265586e-04,-9.536971575510833424e-03,-9.789778190829066418e+00
1.944882983797914652e-03,-2.495500849993449212e-03,-9.799163667863759031e+00
-1.082750452934237370e-02,1.035021229268619052e-02,-9.804239406515886657e+00
1.193929751080782808e-02,-1.418351249512880830e-02,-9.788681468979463673e+00
-3.355239652035159250e-03,4.989306750793261538e-03,-9.804207995929546726e+00
1.156953196867958715e-02,-1.105733800513534863e-02,-9.778243855687836827e+00
9.475953114145068898e-03,2.119986709003505131e-03,-9.798773457485234317e+00
3.638300361155063015e-03,-5.793984864931585842e-03,-9.795107047145474866e+00
-1.457942189435199130e-03,3.710029831358324735e-03,-9.789895758430255057e+00
6.227449853527015043e-03,-1.268991437090133921e-02,-9.781563746930215686e+00
4.255422317973848664e-03,-2.398484712736455131e-03,-9.783367465999839752e+00
-3.327678102306213127e-03,-8.816114887549441823e-03,-9.792060978234230717e+00
-8.454961174786642178e-03,-9.837739657629369222e-03,-9.792423606863712493e+00
7.168931676185866762e-03,4.644951409146245991e-03,-9.802825854982160081e+00
1.328074491564396227e-02,-1.107844310240029603e-03,-9.789529891547809726e+00
-1.246377268375853777e-03,-9.895084603396773690e-03,-9.785746971663291660e+00
-7.983347091992302027e-04,-1.316232198679876710e-02,-9.805997396129271237e+00
1.801637026220708577e-03,3.691955161879888420e-04,-9.780556895641693060e+00
2.938141691210584446e-03,4.117488538956133939e-03,-9.807737910690068617e+00
4.343002672988862008e-03,-4.401509304130456560e-03,-9.794707880242958353e+00
-2.391376610540538444e-03,-3.200415384190512594e-03,-9.783277069228599743e+00
1.676274358086984537e-02,2.918589935275064506e-04,-9.797637852191526164e+00
8.823034882030735340e-03,7.508940443906883012e-03,-9.807107809303042600e+00
-3.303231820812939108e-03,7.849276495958895997e-03,-9.788716702399284486e+00
4.377979085139083008e-03,-3.949133095171658385e-03,-9.786871231402630045e+00
-5.270411969897486996e-03,9.880008411846094574e-03,-9.791097778456359535e+00
-2.220750770555112840e-03,-4.990276406372703803e-03,-9.814798451012419989e+00
-6.178766688709151807e-03,1.574896414177671608e-02,-9.806013108673537815e+00
