gyro_x (deg/s),gyro_y (deg/s),gyro_z (deg/s)
-1.211666976912990218e-01,3.267707826516055847e-02,8.895732496075474394e-02
1.045534458252712351e-01,-1.805783666742525606e-01,6.960948006909959407e-01
1.970689510825491542e-01,4.979954911313089205e-02,5.601306190983063038e-01
7.916224491152140663e-02,1.507297971140719450e-01,1.392696884523951795e+00
-7.191114498093839624e-02,3.781701366880652754e-02,1.375805146276505297e+00
-9.061819064445940375e-02,2.163548387842610665e-02,1.670384916208747628e+00
-1.920168957001372745e-01,1.050384002009175227e-01,1.957063629913453617e+00
-7.832838127853651577e-02,1.290294465121581691e-01,2.357252110391994560e+00
2.237444760546791755e-01,-9.068809662465301957e-02,2.687050038686080722e+00
1.579219432286732838e-01,1.381726970741521503e-02,2.917682779702057694e+00
8.967751781112712206e-02,-6.695497215869665800e-03,3.046544784002537920e+00
1.640321119615316958e-01,1.370949284645763162e-02,3.653724334728507994e+00
-1.097784062365286528e-01,-1.102937912349155614e-01,3.713879552904250314e+00
2.246902412848259256e-01,-9.090882115208971659e-02,4.051456346564332733e+00
-1.597697452435862253e-01,-4.349694391219471878e-02,4.179061319559166598e+00
-1.164339638823495976e-01,-5.851992327541746808e-02,4.691876179900704713e+00
-1.222208796685143040e-01,-3.292837651428378032e-01,5.033868268134718882e+00
2.243775298625204084e-01,-1.246284455035834154e-01,5.221914607936747998e+00
5.751465372935584547e-02,8.187225096428150939e-02,5.557498385987931222e+00
-1.140350580322511270e-02,9.002563657423320875e-02,5.641221956865861920e+00
8.025295774765626999e-02,7.719127186997015722e-02,6.196979051105447667e+00
-1.362429909327809302e-02,-6.607086602172140832e-02,6.189347137693826717e+00
1.555965866313634149e-01,-1.801382450267931812e-01,6.371240852555265732e+00
9.982712897160778143e-02,2.030524890463439314e-02,6.754168643347725265e+00
-1.389314279755787460e-02,-1.880636537866909874e-01,7.102108410911585068e+00
-7.476191174821895935e-02,-6.478663977122514628e-02,7.169093266235701201e+00
3.883999025877516581e-02,4.239141667490808202e-02,7.673246959424735891e+00
3.686910992050319164e-02,1.839426443037475711e-01,8.126855966332239944e+00
-7.100387059908981613e-02,1.500969227017735497e-01,8.332610010848858551e+00
-2.576448073537513372e-01,1.658534625422404540e-01,8.404877491742102080e+00
-6.275993096328114085e-02,3.441282405800687172e-02,8.884012111694227443e+00
-1.320014514524291971e-01,6.352766204039876630e-02,9.243319556888071276e+00
4.895663084377331609e-02,2.333682928070082013e-02,9.586410071536286992e+00
1.054738055347768239e-01,-2.225975392075693893e-01,9.727907765945326801e+00
-6.943872773084898420e-02,6.883529383210709729e-02,1.008391459449176786e+01
-8.476672372803671640e-02,-1.825915951243061164e-01,1.021358412905558666e+01
1.214484397562306528e-01,1.094048468172434049e-02,1.062770983542005965e+01
4.935953041039733979e-02,8.062354666951034032e-02,1.102896277122513702e+01
5.064648618816623704e-02,1.935594109972289811e-01,1.118131040493940453e+01
-1.843811460652839129e-01,1.415576104213053243e-01,1.165727346881833704e+01
-1.996084015675324286e-03,8.463051918253969297e-02,1.175911032079189056e+01
5.783125118565352052e-02,9.911308635764305708e-02,1.185489861576261816e+01
-1.064692454990316534e-01,-9.642724094564977810e-02,1.226482292869652291e+01
9.978633300924823202e-02,6.815979967010414586e-02,1.262909755625851638e+01
-1.755358764260855353e-01,3.936283259896466991e-02,1.282487740741296278e+01
3.678084637304770976e-02,7.125534757756747661e-02,1.344655478964991957e+01
1.631571330774827799e-01,4.556750167306524574e-02,1.332444237982680058e+01
-2.583326169585974108e-02,-6.588601723462492177e-02,1.359084313274348688e+01
2.421840666425221361e-02,1.955328360361789641e-01,1.383969931228060091e+01
-1.078364049954523979e-01,1.791128828503772349e-02,1.412620130080026826e+01
-5.536272600980237518e-02,-3.834568618555487390e-02,1.472112661454537275e+01
1.078576086168367698e-01,4.957210712479485915e-02,1.525109471520840110e+01
7.331618232316414185e-02,-1.482138543303765932e-01,1.498582006067365491e+01
1.190641860079521136e-01,-1.041589641654626780e-01,1.570008287210562870e+01
1.735379986630431436e-03,-1.276391234966439692e-01,1.586883135629843089e+01
-3.266643447441383574e-01,7.552125593872106857e-02,1.609802798277907243e+01
7.731731365667214584e-02,1.375017068639064477e-01,1.637135172798662808e+01
6.563575687653556978e-02,-1.652690902634800507e-01,1.658661543636305069e+01
-8.456362256425760393e-02,-1.808144128856373489e-01,1.720727296318153421e+01
2.615429048013163602e-02,1.044323539682035368e-01,1.709216850164813195e+01
-2.280399523368302830e-02,2.397696222447736891e-01,1.757145567061800051e+01
8.916336146108322369e-02,-7.129610252718406038e-02,1.774633939664389359e+01
1.474002809195837094e-01,4.305973571789376703e-02,1.798569530042075826e+01
3.745013836738133456e-02,-3.785495812752979333e-02,1.834168491427844572e+01
-2.658456439127996132e-02,1.954090759936662550e-02,1.863231986568827736e+01
9.417055141546779029e-02,-1.366555175552392754e-01,1.910645821719830195e+01
5.024409135076106370e-02,-1.716729709787088443e-01,1.919243370722903208e+01
-9.508931507636574076e-02,-3.271620451573289956e-02,1.922354389086919824e+01
-6.628610631319148058e-03,-9.632957175292979068e-02,1.965315913945217829e+01
-1.785336434382831794e-01,6.870811501119868103e-02,2.009697564393356117e+01
-1.426618660115588633e-01,-6.741829770537841049e-02,2.024638298513544399e+01
1.671877181461672163e-02,-2.216661708743721260e-01,2.053470327847473698e+01
-2.945069681681926066e-01,2.799531045313898361e-02,2.084181873532980589e+01
-1.135952058455491215e-01,-2.256699555436703641e-01,2.110951366903989168e+01
-1.262647893532044818e-01,-2.012236849095980218e-02,2.163270830570334269e+01
7.379907313722020024e-02,-1.467612012708778731e-02,2.167606763781391876e+01
-1.306378083262609846e-01,-1.544242438369207715e-01,2.187517530255620102e+01
-1.610503104793287454e-01,-1.916854152771635400e-02,2.238441510671273349e+01
-1.870301758826813099e-02,-1.205139399939438166e-01,2.270432716648503302e+01
-1.422422547780643337e-02,3.027086317845024965e-02,2.293269389748405729e+01
5.352279779741758725e-03,2.364489205467172339e-01,2.344822850488692367e+01
-5.633071945520379958e-02,2.739615969585942890e-02,2.339146048944508749e+01
6.030063575731432063e-02,-6.754171249730568649e-02,2.359259815897623014e+01
-4.284617874249154607e-02,-4.632780239733386152e-02,2.401125493338025763e+01
-8.569118715829923683e-02,-7.575095357466438140e-02,2.463382058174993716e+01
-2.531774650558534217e-03,-4.056433707062369332e-02,2.462861826109879715e+01
2.532124945687643236e-01,5.604631536688015059e-02,2.481691076214976732e+01
1.209728291478967682e-01,6.267015613986048894e-02,2.532504355015491626e+01
1.028534089491442947e-02,1.555449391865659781e-01,2.550760818854369560e+01
-1.680499668375548261e-01,-7.660412017895680548e-02,2.572852066460231413e+01
9.359645469481252256e-02,-1.010635175466039620e-01,2.616647180038467368e+01
3.196132971027017267e-02,3.112587205276503427e-02,2.650437780513633612e+01
-9.808781311423918348e-02,8.991068401154150846e-02,2.643950842078212915e+01
-4.412250891390095964e-02,7.337277316890510048e-02,2.692270822435599698e+01
9.601629271475556338e-02,4.079440725392676631e-02,2.707676736126808592e+01
2.265848320095345536e-02,1.257374510221884178e-01,2.768147780234971478e+01
4.902009908521356291e-02,2.062470095256907221e-01,2.781160490784208150e+01
-3.977106776278561961e-02,1.839161565086812056e-01,2.802476871638028655e+01
-1.810912139055178283e-01,1.715318938563543255e-02,2.817196335751066272e+01
-1.659942900083669071e-01,3.980262184709418283e-02,2.873378946304460513e+01
1.304513613293530744e-02,7.548747763125704391e-02,2.886978052363309288e+01
-1.776260640393410029e-01,6.998445459790490764e-02,2.919835136689543731e+01
1.093057907928425034e-02,-4.381623815270323241e-02,2.970826212067047578e+01
1.187208418115326541e-01,-5.909626591645524007e-02,2.965620308986546405e+01
5.450476494756770901e-02,-3.129351606030158356e-02,3.003213720272220399e+01
1.021621922307741279e-02,9.187176512406583506e-02,3.030634570582424558e+01
1.965901427174078231e-01,-3.372318474460971743e-02,3.064906689070119583e+01
7.552040269101462089e-02,6.450385612793829715e-02,3.104717055109714252e+01
-2.733408337742660454e-01,3.524269364146958433e-02,3.111724154959288668e+01
-2.787105281549090777e-02,2.450837308908104528e-01,3.152448304595924000e+01
1.172594365841016228e-01,3.583555904326125169e-02,3.205729828639989165e+01
-6.679060652579642265e-02,3.328876043128748963e-01,3.203747379948773499e+01
1.460792583417749868e-01,-9.693512891899609685e-02,3.254967059387257677e+01
-7.975294583756138700e-02,9.771277120891190549e-02,3.260560647641358401e+01
1.530145272496329645e-01,-1.937277006444287075e-01,3.291682192052057587e+01
-2.323798427212807050e-01,1.237005645720408581e-01,3.310259911401512056e+01
-7.013469298874153157e-02,-2.442189552703389818e-02,3.361459252540183940e+01
-1.929326775675777039e-02,-6.750080695062737890e-02,3.362162284877344121e+01
-1.442010998765049790e-01,2.460712118310544039e-01,3.380214243450073752e+01
-2.543893233734602077e-01,-6.026986411168299557e-02,3.362572738609118517e+01
1.801303054012530769e-01,-1.959053171092894896e-02,3.383960255267855644e+01
-2.731850335235547905e-02,3.188327572971512425e-02,3.396872988439216101e+01
1.578858709103641731e-03,1.337014450329957194e-01,3.401576221799052036e+01
1.575508041143313387e-01,-2.206064763212528257e-01,3.413153423335397463e+01
5.499414863654378954e-02,2.521747330062122996e-02,3.400457763610580741e+01
-8.704462794001225495e-03,2.083754391904782399e-01,3.396137185350508503e+01
-2.030903950239029143e-01,-1.277119219781295278e-01,3.387790740064059491e+01
1.037397797992016535e-01,-3.264049825361421964e-01,3.375060934561771830e+01
2.458638840563431294e-01,-7.393448172663696916e-02,3.361069171564486879e+01
7.075519304024296963e-02,-1.297969052749893548e-01,3.382277442058561689e+01
-1.191038367001843595e-01,5.959463609903712517e-02,3.368920428778614706e+01
-9.187249764355946702e-02,-2.967380795918408420e-01,3.355154678617605413e+01
9.558981831525532880e-02,5.852163004603849056e-02,3.342412677236814034e+01
3.678253184738860398e-02,1.533902029899944786e-01,3.352538115092821158e+01
9.425105546095997877e-02,9.055457894938581664e-02,3.336251277737332543e+01
1.271340119960079895e-01,-1.513319453262387121e-02,3.337573551077117173e+01
-1.373933117510814650e-01,2.654204681869066218e-01,3.283098163692068994e+01
1.067345701097132879e-02,-4.754182734674088084e-03,3.301377930169871178e+01
-2.658385274477316138e-02,6.881525180704584077e-02,3.260775449482875388e+01
3.282836786523486983e-01,7.449962289007212336e-03,3.269816340346196171e+01
-2.581744105723278102e-02,-2.014781091834468019e-02,3.257528165798927233e+01
2.568165380885007593e-02,1.190356922753448149e-01,3.246842037709346585e+01
-1.744052915450756414e-01,1.124204928014062577e-01,3.197558986105795853e+01
-1.338530914813033657e-01,1.205471813822607957e-01,3.194607072691106353e+01
-8.194744520548492839e-02,-4.556392502019581542e-02,3.190395624527116070e+01
-6.466001659499075183e-02,1.700879971191778250e-01,3.180813704590506674e+01
1.435945007988029265e-01,-1.955465748040590424e-01,3.190568545949960111e+01
-1.160971444518201362e-01,-7.104059973350168589e-02,3.141539425773462568e+01
-5.091509784828182617e-02,5.826302641380737973e-02,3.138570902290550890e+01
6.921218778808166383e-02,-7.335699144046735343e-02,3.116649803700078181e+01
4.922752939740340956e-03,9.397680817197818365e-03,3.107293439208850216e+01
8.967578377654791821e-02,-1.776435888343843444e-02,3.086297368548297371e+01
6.025688653494938596e-02,2.043251919991866394e-01,3.076915074616224288e+01
1.334039371171935433e-02,1.057896681013329732e-01,3.065877084357074267e+01
-4.999737558677303656e-02,-6.472504214947825962e-02,3.043529594894797086e+01
-6.992448432290108984e-02,-3.954294600991924147e-02,3.031042603952117531e+01
-1.152870948775751303e-01,-1.083766931178546666e-01,3.025503704146189676e+01
-4.983452184798444103e-03,-3.252959609498633914e-02,3.010651532951805009e+01
9.096278295006844650e-02,9.283588602511427812e-02,2.969184678507739861e+01
2.241746868766711365e-01,6.530587716476975169e-02,2.947783025848839245e+01
-6.381176807932940898e-02,-2.096334392547929137e-01,2.950599096767742680e+01
8.302733100406048394e-02,-5.212627414389198882e-02,2.931323976985872903e+01
-1.088563513204051092e-01,-7.501981134803982487e-02,2.915451114828263002e+01
1.482391166018539874e-01,2.056406503696988838e-03,2.895689591625307102e+01
6.220987546249317351e-02,-1.526470350734238091e-01,2.893344585903842869e+01
3.199893382753334764e-02,-6.024233173859927515e-02,2.891188636125863098e+01
1.505507084809923068e-01,-8.332515584369987183e-02,2.862539706013653529e+01
-2.421788298944330120e-01,-1.278059294170891813e-01,2.845588762035860597e+01
-9.177993879210313843e-02,-5.075732372144584753e-02,2.826835330594114026e+01
-1.307627328727253013e-01,2.722468990899619690e-01,2.821345524640171121e+01
-1.203809855202492285e-01,-6.019327404023332162e-02,2.803255264777057931e+01
4.358704555830158339e-02,1.832727635364012758e-02,2.757957287342233244e+01
7.623087539360363929e-02,-2.265925446736347937e-01,2.767637861341941630e+01
1.416829104711669896e-01,-2.070569031739275326e-02,2.769021148937127208e+01
-1.361649778037105595e-02,-3.280733925415155183e-02,2.744708456331575164e+01
-1.486981578321281972e-01,1.531568448708375829e-01,2.741760093694913891e+01
-1.908312436403057921e-01,1.058580477992635965e-01,2.706482783951073046e+01
1.614540600892456212e-01,4.936887650650580162e-02,2.700565526150581874e+01
2.037394339428923729e-01,9.335242248311359514e-02,2.681119131576691927e+01
-1.013738485869500050e-01,8.346549348103679544e-02,2.681328931937020243e+01
5.523847211923278711e-02,-7.384302302803920359e-02,2.660444008715993647e+01
1.317140973167555892e-02,-1.034729674219523332e-01,2.636687150081771591e+01
-1.554886588596041119e-01,-9.534125998766523891e-02,2.627401009055903813e+01
-9.125762591840011484e-02,-1.887671218672003770e-01,2.635398032805436586e+01
-2.677466146101200595e-01,-1.801123999915686391e-01,2.577386270801820700e+01
8.655390764631218370e-02,-3.929758978659936286e-02,2.604954907741469938e+01
1.195470435703719359e-01,-8.790825086178054304e-02,2.578698945708639911e+01
2.183942574245266791e-02,1.063670728439809199e-01,2.545242793935706516e+01
9.458200531320012927e-02,-1.798263032274619033e-01,2.548456693102959747e+01
5.137781764681100677e-03,-2.099750458672466347e-01,2.521487609138042885e+01
1.248342827152964379e-01,1.882581472855594795e-01,2.519153401268716408e+01
2.474615267517330311e-02,-1.602838084648904593e-01,2.494163792738727992e+01
1.352464578737877787e-01,-2.639457199321403880e-01,2.496661730251855360e+01
3.194972083011299140e-03,-2.662877089894915769e-02,2.473297034302161990e+01
-7.910009032627018932e-02,1.473769225311802322e-01,2.457055247852850499e+01
6.481310945373663923e-02,-1.618610714214541724e-01,2.452519730998214698e+01
-2.056891904190848719e-01,-1.187240631964832094e-01,2.427503689804764164e+01
-1.558056334781207121e-02,2.384525291698583738e-01,2.412688284818054640e+01
-1.286556997305880190e-01,-9.836407421798294345e-03,2.432719022470633874e+01
-1.187303607027531960e-01,-1.126526753291448441e-01,2.408875888542736732e+01
-1.303827272245290658e-01,-2.869153766578078635e-01,2.384236379779748205e+01
-9.932521088551218846e-02,1.433373662824247441e-01,2.359009958502538140e+01
-1.238384899220345697e-01,-3.431190245057228611e-02,2.350990040694104266e+01
-1.492779756318731582e-02,-9.672807216696305277e-02,2.350773501457054593e+01
7.125557063201302943e-02,8.807768607435978447e-02,2.327881763905573465e+01
6.128672906315052460e-02,1.957665121418167287e-01,2.323070532495558638e+01
1.239719395659934359e-01,1.680679248465881750e-02,2.320214557071074779e+01
-2.253076003297680985e-01,1.404876362185600858e-01,2.329945515921570021e+01
1.325885441703676670e-01,1.956179805432624597e-01,2.300704390319189230e+01
-8.908686688420990041e-02,-1.089943951593151245e-01,2.279904268451655369e+01
5.518463739042864247e-02,-1.304235171073352406e-01,2.289775871054260392e+01
2.431285074249993003e-02,8.181269608301049157e-02,2.254211146010563738e+01
7.442132238052920346e-02,7.556274390543057939e-02,2.260602135927545930e+01
3.278370618191898261e-02,-8.881708910004602886e-02,2.252798940163280861e+01
1.058522303469055931e-01,-1.560101023127038189e-01,2.220194354692144856e+01
-2.552239688140247459e-02,-1.987386622727657925e-01,2.209749616017125362e+01
3.251176125147315493e-02,-3.073997224628738107e-03,2.203512675533120202e+01
1.835549080946909939e-01,1.539211838394161369e-01,2.191939521670165902e+01
2.929747545330642078e-01,9.052627147353860260e-02,2.179992707548245079e+01
1.282426003676523096e-01,3.801499572075554834e-02,2.175958246840625776e+01
8.010161144513662512e-02,-9.499902402864643380e-02,2.168724103172142392e+01
1.869059564695589037e-01,1.145736887832416034e-01,2.137608580102616784e+01
-1.034250853081628424e-01,-1.427894331616972878e-01,2.144122920221770556e+01
9.147882734183676590e-02,1.230903532905866377e-01,2.122411067632157256e+01
-6.306281348392070440e-02,1.093213309714299170e-01,2.135841259464567088e+01
-8.154398804132078564e-05,4.097163034480623411e-02,2.084693797223734890e+01
-1.248868094726794248e-01,-1.436776662550744987e-01,2.103618960366330626e+01
-5.989855350198285827e-02,-1.602173557558231711e-03,2.075798765601903284e+01
-7.641138036374740816e-02,-1.161380726254928192e-01,2.079226603124416073e+01
-9.817465813989283141e-02,6.442825989908773990e-03,2.059000992838898370e+01
-2.139183220307468158e-01,9.659957773975934303e-02,2.024375032989277301e+01
1.041197619568171029e-01,-1.362233162084446336e-01,2.050378307295493840e+01
5.769088835965476003e-02,1.156822099100949519e-01,2.020760409829867044e+01
-4.247435129820734817e-02,2.183468518303911254e-01,2.028674587788541928e+01
2.415738466975635435e-01,-6.296532663271554864e-02,2.004873718863551701e+01
-3.184507615428670141e-02,2.409866293732198517e-01,1.990918352124804258e+01
-1.987818029404159748e-01,6.235501233109058683e-02,1.979468819336672780e+01
2.378324511296193711e-01,-1.096997848151383681e-01,1.979046138900348950e+01
1.407399488768732061e-02,-2.031553538160928152e-02,1.952786700843516599e+01
-1.451115041573077247e-01,1.084577918995754398e-01,1.938357558319716389e+01
-1.451424974222712827e-01,3.156060757901717889e-02,1.940551904785026949e+01
-9.874906385881870863e-03,-1.222739874998290815e-01,1.929592972096954995e+01
2.010249915545246069e-01,-5.788169143868170802e-02,1.936939847212702759e+01
1.408521633637457686e-02,1.459787262595833024e-01,1.890980629493340714e+01
2.771237735802743393e-02,-2.501398873606741624e-01,1.890940865399901938e+01
-9.768568515362268528e-03,-1.938697671171030548e-02,1.887946269868769278e+01
5.600516772595406922e-02,1.390764062913839583e-01,1.886935744233899825e+01
-1.034394403633680411e-02,1.732753475766427020e-01,1.871979191772587825e+01
-9.486657487852766246e-02,-9.695389528726081063e-02,1.874692065340535052e+01
2.180962544200763242e-01,-9.165453266991631376e-02,1.856810493017881214e+01
1.228878632849845220e-01,-2.355231036010189682e-01,1.843160046985711276e+01
-4.871463660969937992e-02,-1.753947732314072860e-01,1.825555990192848910e+01
-4.847730983069228894e-02,2.242980012394523576e-02,1.810366421782843460e+01
1.774580380076273556e-01,6.586042361084253061e-02,1.814925687124349452e+01
2.214231786167931704e-01,4.351811776649474467e-02,1.804103615203469602e+01
-9.791354950901281703e-03,-1.616403290786611879e-01,1.787863172390592581e+01
-1.523026171077939694e-01,2.000889544193482084e-02,1.773836773353458440e+01
1.534409085874868239e-01,1.669960382365696591e-02,1.779906657428713856e+01
-5.477622433033137173e-02,-1.610748790652194104e-02,1.758215855085194335e+01
-1.806465867254090640e-01,1.515064548851414450e-01,1.769012608504130668e+01
-8.218159427069600658e-04,-1.644588331773875478e-01,1.749914081363710849e+01
-3.070439278815775136e-02,-7.657492846187185544e-03,1.756466078122430119e+01
2.215488828846090830e-01,-6.107130350160278748e-02,1.705515020596577003e+01
9.429975940377260946e-02,2.919034517991783151e-01,1.712503953749819985e+01
-8.893902763055497318e-02,-2.508058239995915317e-02,1.703181899905823471e+01
1.002614177980127586e-01,-1.341377256649111116e-01,1.709032437739767474e+01
1.013553447927280360e-02,-2.094110870752088904e-01,1.656327874754313711e+01
2.061835232575401911e-01,5.283883668784702253e-02,1.676548525204849227e+01
-1.669760293469083404e-02,-7.562675480491422297e-02,1.675298471980286408e+01
4.341061183813720026e-02,1.123198310986084220e-01,1.657673830508502633e+01
-1.046660413757302260e-01,3.881941705619371130e-02,1.660841818083903476e+01
1.087318090972648477e-01,1.584470432141784069e-01,1.656335055748024843e+01
3.218859823897100014e-01,-9.746928898174242462e-02,1.636907228038571205e+01
5.964233145082792342e-02,8.240286273498957648e-02,1.630356939365395519e+01
-4.228253291740261682e-02,3.595442233716668323e-02,1.620028599188233187e+01
-1.045147782307795370e-01,1.071196400660254788e-01,1.614825900869552910e+01
-5.110604024620010732e-02,7.484485573383836687e-02,1.605264194848719228e+01
4.640749027899067347e-02,-9.854902250673652775e-02,1.595397144063491268e+01
6.062621362566713440e-02,3.471704671933149573e-04,1.579488249630270325e+01
-6.201042876310755569e-02,-3.612322278727543579e-02,1.568926506211730931e+01
2.766513035446860336e-01,-2.027678947631635364e-01,1.555667049666425150e+01
3.762036833300475003e-02,2.295965438960135552e-01,1.566331573979560332e+01
1.016359256131411370e-01,8.420626934337754887e-02,1.568426917766162987e+01
1.316825617016011696e-01,-9.997578608643413467e-02,1.540927812277123721e+01
2.388684593505543130e-01,6.077303176445393584e-02,1.557261562464507598e+01
-1.450396082867422276e-01,1.307807140976665061e-01,1.520172743076765798e+01
-3.374889766799016866e-01,-2.948933194134379515e-02,1.529029560734944404e+01
3.287291709780423843e-02,-4.909063788811623280e-02,1.525658608424175711e+01
8.036719290930720294e-02,6.218193501134567334e-03,1.511692145126911946e+01
1.016588164143122225e-02,-1.278235750857934505e-01,1.512936408156251389e+01
-1.064819186530614886e-01,-8.450748946017619390e-03,1.475175636711435878e+01
3.670412616190682487e-01,7.165462968362834584e-02,1.478797102486214499e+01
1.428501556597937781e-02,4.558921564920591363e-02,1.483637269502857592e+01
-1.402827007178592544e-01,1.135436322207219600e-01,1.470088514703938998e+01
-2.275405850738099200e-01,9.654010917796669589e-03,1.466842111165636275e+01
-1.226271082868517770e-01,-2.352919592352868683e-02,1.470123692130738213e+01
-7.925451310319577003e-02,3.863401952115774057e-03,1.453531759098791731e+01
8.220375566077635365e-02,2.437188096455345648e-02,1.430718923023893474e+01
6.834814438748183785e-02,8.972005299946272938e-02,1.443099022189474745e+01
1.179817898012799765e-01,4.610945362558573762e-02,1.411597127903817395e+01
-1.299522967455842178e-02,-1.404258219934897967e-01,1.412554291594195810e+01
7.987395901917554442e-02,-3.284365180493225428e-02,1.421332060863746527e+01
1.181884833526320733e-01,3.927969632390442695e-02,1.410560542265312733e+01
2.349432157045482361e-01,1.148009089114514214e-02,1.397633671404234157e+01
7.494383315732852657e-02,-3.116447142879621435e-01,1.366151361426130428e+01
1.146832293017935878e-01,8.110117065736663355e-02,1.369371592077485467e+01
2.845703528113487923e-01,7.355378347202130851e-02,1.360008852897697906e+01
1.679774448250010155e-01,2.668120140297746690e-01,1.367029049135571483e+01
-1.113905953938532506e-01,6.399360259302143417e-02,1.368867728128245531e+01
6.016292000506108517e-02,2.484925840787228501e-01,1.349809963444917393e+01
8.070649399797243106e-02,1.681426901090311010e-01,1.338038322156523918e+01
9.026979219879091576e-02,-2.519463747600031445e-02,1.328655094193652886e+01
2.651169738153279914e-02,-1.987132434565844208e-01,1.327895908852973328e+01
-1.899351286290935636e-01,-1.924944628336957772e-02,1.310144215844568549e+01
2.908704421102888404e-01,-1.098022261850748610e-01,1.317034565915021282e+01
1.044473729230818715e-01,-1.457026168789049558e-01,1.301286234135606890e+01
-7.600079020556525788e-02,3.732484134388702052e-02,1.311429950600426508e+01
-1.051992975573011468e-01,-1.551788991598790912e-01,1.290851753273272706e+01
1.117293835071332814e-01,-2.296526286241147852e-01,1.289279523713674713e+01
-5.497168213192630409e-02,-1.216784581094693396e-01,1.276291624670679781e+01
1.433665038786226080e-02,-9.452232362355700301e-02,1.290581685068990758e+01
-1.200481522926741089e-02,2.245994393827689672e-01,1.267462409154245151e+01
-1.990250278551677215e-02,5.626041613893928428e-02,1.249994614049482422e+01
2.124469985602701616e-01,1.246816472396403142e-01,1.250301468412140338e+01
6.643260240603494904e-02,1.362864278100890669e-01,1.242561393845568674e+01
2.551115316436945030e-02,-1.559299726539038200e-01,1.228286066257993525e+01
-4.638687845524661069e-02,-1.295241867908301370e-01,1.216329094162026969e+01
1.688481102365212367e-03,7.029860344097021985e-02,1.213510583668717047e+01
2.717633525304234965e-01,5.279173194956412324e-02,1.214087830528439937e+01
3.715274606857386225e-02,-6.386015400367292538e-02,1.186238306995882041e+01
-1.029112193877011749e-01,1.191968742695587724e-01,1.207103185674092494e+01
2.149651661021709584e-02,-6.416513502822693282e-02,1.201905010395347517e+01
-5.143518456342257433e-02,-8.922829942830078076e-02,1.188949146920280953e+01
-1.668806970310023896e-01,-2.800280040646523777e-02,1.213718167226091715e+01
-1.917206961612434937e-02,2.232773812458808405e-01,1.191877000528608654e+01
5.744338342437840805e-02,-1.561996225123599494e-02,1.174229236831657630e+01
-6.646805603450564592e-02,-1.678647863475932478e-01,1.190980684222914299e+01
-1.297303964222862663e-02,1.606836654772499928e-01,1.149780336351773080e+01
4.819986017538587658e-02,-4.373728921502057637e-02,1.156320908379169055e+01
7.556806853379298416e-02,4.229705730094358157e-02,1.165314191215148298e+01
-1.653584899452001100e-01,1.463988924027420091e-01,1.150723964811233913e+01
-1.112862588362514976e-01,3.302408201031320489e-02,1.122987625783397192e+01
2.342117974303945527e-01,-2.002273598022401013e-01,1.120843789624636599e+01
6.009112084797394587e-02,2.883596448348604291e-01,1.136254147986315211e+01
2.143565103764824564e-02,-6.420835367736471566e-02,1.153948631983448614e+01
1.758542347223363434e-03,-1.347914139052295845e-01,1.117346236863421716e+01
-2.484563301574966576e-01,1.388831708004423793e-01,1.109941606574799522e+01
1.977703905559832429e-02,-1.834637734289630839e-01,1.117176890694694080e+01
1.026366577539314894e-02,1.516502374879177273e-01,1.079513319178913200e+01
1.914159866678848687e-01,6.821028476923178541e-02,1.090718589188622190e+01
1.467690696038397302e-01,1.406573603608951284e-01,1.088376869016748749e+01
-7.749377976013627559e-03,-1.576765111682813525e-01,1.073600410092907431e+01
-8.698780115617682496e-02,-1.048680181952950791e-01,1.080709619779969444e+01
9.674971726127318261e-02,-1.870140723204884170e-02,1.094051258729535370e+01
-1.581267182256047288e-01,-8.031288714359954839e-02,1.071239578877165854e+01
-2.981905977655173803e-02,5.236485097907880859e-02,1.059594749794651669e+01
1.597929942571571504e-01,-5.999681364860440236e-02,1.047346437738781688e+01
9.931736746424644352e-03,1.094233883404354540e-01,1.050542279277972568e+01
1.229306655231579559e-01,-9.577828989686380801e-02,1.040354358233595455e+01
-5.902637021390366723e-02,1.528512602268825571e-01,1.032416491071747267e+01
-8.387988761359937984e-02,-1.389282740697995733e-01,1.035098995689271462e+01
1.019141248561193230e-01,-3.871103666749856065e-02,1.021872591051914725e+01
-1.229128181715621743e-01,-2.709728824989919571e-02,1.009493504975428380e+01
8.043693558881638561e-02,-1.121166013997691585e-01,9.862429865449650279e+00
-1.234738747370661138e-01,1.244029180540970163e-02,1.010057776775197880e+01
1.214674228226386710e-01,5.297106446540600366e-02,1.007380201335719327e+01
1.962159706172400819e-01,2.015971664295828913e-01,9.904681749929801882e+00
5.049270795620673961e-04,6.979831424406449103e-02,1.003003263938485645e+01
1.298544774364132903e-01,-1.552877004237514019e-03,9.807721610051297390e+00
-3.728440324726631921e-02,-7.908060865494238867e-02,9.888767593753961194e+00
3.657012190518794947e-02,-1.277632491619358490e-02,9.604421546868424642e+00
-1.572411969026916434e-01,1.479699340501155341e-02,9.535274934487031118e+00
1.190115062683136660e-01,1.952455099703180874e-01,9.610805929409728776e+00
-5.653786955287306432e-02,1.318993764938290181e-01,9.608731122438181060e+00
-1.494959409706898557e-01,-1.160753050637354233e-01,9.474419945391671760e+00
-3.657471924411937608e-02,3.316581685242727534e-02,9.647501590164100804e+00
3.667820883650740327e-01,-9.056686861184237713e-02,9.798643137333233000e+00
-2.295035595788675054e-01,5.024738911579561956e-02,9.307652528796111824e+00
2.381066817388181323e-01,-1.232601029855649732e-01,9.238579717970457850e+00
-1.808617016080904527e-01,4.775683362734329390e-02,9.306086002890992859e+00
-1.049058178431822724e-01,1.762737078880480812e-01,9.234515418596641823e+00
2.935455580324683802e-02,-6.992960978011743267e-02,9.131733952590586512e+00
-1.257117166184349745e-02,-1.914369616504820182e-01,9.318878302124135260e+00
-7.761878937552420081e-03,2.474669585977890274e-01,9.106011408422933329e+00
9.807486976086507435e-02,-5.796568128802302017e-02,8.976289792736272588e+00
-1.665238996550963690e-01,-5.878217129620994658e-02,9.106073172788738290e+00
1.197045389877952198e-01,-2.021406907098246830e-01,8.887091017678526939e+00
9.899969234662910067e-02,-2.569242241760310089e-02,9.053732838010024153e+00
-6.388938862927330542e-02,-8.565218805879462605e-02,8.881803646261481333e+00
3.635409939741270080e-02,-1.150272801728589450e-01,8.951471405035460904e+00
2.437439355231990068e-01,4.165668226706356614e-02,8.765201348105005508e+00
-3.933530205274906461e-02,-1.655069293126608387e-01,8.678917098269163688e+00
6.983410126952198371e-02,4.130369464644360195e-02,8.678794159727564406e+00
1.229675966046419114e-02,8.635415790153729010e-02,8.921998955944044241e+00
-1.328885465796862120e-01,1.362744299977614593e-01,8.615668992370192569e+00
7.491406378597927074e-02,8.816764318354522803e-03,8.408607974893902437e+00
-1.199960938614977463e-01,3.128619421196975753e-02,8.486059810802077052e+00
-4.975295450825167193e-02,-5.253693539799553919e-02,8.334840933433408594e+00
-1.044207190011360725e-01,-2.770603284792793816e-02,8.339269520418502779e+00
3.257473647432423958e-02,1.570302225736615598e-01,8.513699124874044344e+00
-8.876388415767091922e-02,-2.066826671427974757e-02,8.210681731579210663e+00
-3.236917990589015248e-02,-1.224016866144198579e-01,8.237859731577389155e+00
-2.864098864890753798e-02,1.305429183579659980e-01,8.218211833767298913e+00
1.332961209126477253e-01,-9.524699081179013871e-02,8.134480057134211961e+00
-5.204502615987034730e-02,-3.100437287365051531e-02,7.892536944734346527e+00
-5.781221341543309883e-02,5.254247188885269315e-02,8.064003305840454772e+00
-2.450257287069333365e-02,4.612226597263866662e-02,7.791563646358238948e+00
2.239867440029453399e-02,3.445045569852799722e-02,8.001223304209341691e+00
2.092568828861278984e-01,-1.322641372306691265e-01,8.143984896468309032e+00
-7.107651909422994796e-02,-8.409296075675942728e-02,7.861272575816385277e+00
6.639038848357305123e-02,3.763226286439861484e-02,7.848347621453574341e+00
7.912531383192398377e-03,-6.272457014365603271e-04,8.002742039127687335e+00
7.536892713944825031e-03,1.996628474243342666e-01,7.893869200202180636e+00
6.374541299367064706e-02,-1.750442650952303281e-01,7.908072710464145061e+00
-9.811418702711044437e-02,-6.111789522390744661e-02,7.626983181453534044e+00
-4.806640741781816745e-02,9.168814474262400316e-02,7.731662340300938574e+00
5.967997574148977552e-02,-3.554941081823935478e-03,7.680800826965473505e+00
-1.603768046296873660e-03,-1.624334616190555858e-01,7.576648497432186602e+00
2.456896532093221230e-01,-2.144774522497039718e-02,7.653296539761877959e+00
-1.080287302185009291e-01,3.302615992501559822e-02,7.674100924536970680e+00
7.969244315070642126e-02,1.365267117022690435e-01,7.527586257713163143e+00
-9.401393633080699919e-02,1.047244691219988283e-01,7.661706413081967426e+00
-3.255407957396139890e-02,9.362679756557513999e-02,7.549627275971498186e+00
1.412362670368492723e-01,-1.641051936382000032e-01,7.343424742705883190e+00
4.483057856047247686e-02,1.343260697906222823e-01,7.273986845670449064e+00
1.918014532283734142e-01,5.469771099387373686e-02,7.137751694420908954e+00
3.353632232374936795e-02,2.259455268537334249e-01,7.295510353215823862e+00
4.973634557049994021e-02,-1.134480386115117589e-01,7.351330698803002939e+00
7.811303603754671254e-02,2.351685019908169305e-01,7.094065874147991835e+00
-1.550127327093903497e-03,-7.298350644585066549e-02,7.111741945561600886e+00
9.005197777054632646e-02,-2.070884751492194364e-01,7.376658505283074874e+00
-1.666594227276297843e-02,-7.439689890714323850e-02,7.248020923259470116e+00
1.778359407259318958e-01,7.784793915053585256e-02,7.122092244309881082e+00
9.622885944698041094e-02,-3.091143912559821474e-02,7.122699647217022090e+00
1.094859112714709759e-01,4.966481436629026358e-02,6.875562164856110492e+00
1.506552835100886389e-01,-4.586221041881113902e-02,6.978944405478116231e+00
-1.281918411104485955e-01,-2.482377903852351630e-01,6.963209156369125630e+00
-1.858538723828719319e-01,3.836986063036443989e-02,6.994929310717088455e+00
-3.483045413017520769e-02,3.380570464938413566e-02,6.947650705996530007e+00
1.619649606166719547e-01,-1.180728153341565889e-01,6.795839046566445774e+00
2.000103390989014795e-01,5.462660805849086504e-02,6.617525311641214714e+00
1.593532541756504384e-01,7.316315540288148567e-02,6.782924649007609830e+00
1.558951394132218893e-01,-8.079520419309432766e-02,6.592388502085146484e+00
-8.106942232657526892e-02,5.304958179614299024e-02,6.549454057773751892e+00
1.585910350762790300e-01,-1.277804790063771789e-02,6.717295389545284934e+00
1.062712857320578796e-01,-3.962973441339912722e-02,6.407151642218102516e+00
3.405709157873357262e-02,-4.188797657026650800e-02,6.653679507940395865e+00
1.349290485368634107e-01,4.729853861304832846e-02,6.637810028222395076e+00
-4.863131837881207870e-02,4.239603421462131982e-02,6.300204385787114170e+00
1.248819823221051367e-01,1.366512639136126805e-01,6.324589920339918514e+00
-3.285070752914948100e-02,1.017672265549010441e-01,6.474076374344853058e+00
-3.518654608974054743e-02,-1.999298855986218482e-01,6.343835850075441485e+00
-1.525109450416419210e-01,1.428818867350132860e-01,6.261297836576980025e+00
-7.217754544226721858e-02,-2.382840007282703287e-01,6.214178342228279917e+00
-8.756469887907150640e-02,-2.667234638108036127e-02,6.143864598743457250e+00
2.081613917592060187e-02,2.780367857649584246e-02,6.239886121911921713e+00
2.363033034532809745e-02,-2.107403197414206009e-01,6.198263359821359231e+00
2.218057989266529195e-01,-8.567786888234003861e-02,6.192938411367978624e+00
1.219641128275051611e-01,1.800913586634215469e-01,6.285646089846870233e+00
2.834228957602834276e-02,1.073471532415768842e-01,6.043141595375255193e+00
3.640085469791099482e-01,-1.032259650074493079e-01,6.214911205276066219e+00
-1.131996680793465188e-01,-1.157523216912658207e-02,5.899223584536355425e+00
9.948399392666434915e-02,1.639483470408973839e-02,5.887448325050944398e+00
3.276271468089259065e-01,2.753978051895241697e-01,5.829424732475111171e+00
-1.451204410179552512e-02,1.792574352513905123e-01,5.953663338802345883e+00
5.116276143581267172e-02,-6.743524905281471360e-02,5.863295412989862676e+00
-9.705478603474540500e-02,-2.063527067426125794e-01,5.669036087715741523e+00
1.314755622690204906e-01,-2.775845945482445162e-02,5.865886934421340015e+00
1.542815120196538436e-01,1.671918970178004615e-01,5.924861657402142434e+00
-9.008988144824976729e-02,-1.318426099611197388e-02,5.802807376570848774e+00
2.075567896400425105e-01,5.001607655839460792e-02,5.601955820621620674e+00
-1.924718183408612449e-01,2.750680207718942012e-03,5.425720364227451853e+00
2.244697199193845250e-01,-1.140289500851881035e-02,5.639595102656541847e+00
-5.107874146810933297e-02,-6.300443993743158611e-02,5.318156655803798039e+00
-8.032964895830950469e-02,4.649807413515025939e-02,5.704884518400621829e+00
-4.343726543819375480e-02,1.983395461533659088e-01,5.710192763631025237e+00
3.407871471032956900e-02,4.804783418916157289e-02,5.588838847439173918e+00
-1.274414164668754013e-01,-4.294516771543709088e-02,5.429558285892927216e+00
-3.636193091806859401e-02,1.617299341344351216e-01,5.516906832001923000e+00
4.652419399908327979e-02,-1.553135774724118401e-01,5.607426371162425482e+00
1.158336769552222867e-01,1.238151008331227036e-02,5.327633662759675204e+00
-1.332247033279114479e-01,6.104220114450748663e-02,5.525394645021597384e+00
-2.187527334080144326e-01,-9.440321711107779734e-02,5.627914790555633928e+00
-8.048239038777840748e-02,-3.076452748031083262e-01,5.415215444222598151e+00
2.167574742609091054e-01,4.640142706559362978e-02,5.393336638891256918e+00
3.607908822567310742e-02,-1.531337020827975848e-01,5.312066844754593120e+00
-3.108300696367590280e-02,-2.362341036148145057e-01,5.282911734566414275e+00
1.425284180280507740e-01,-1.654095927492363338e-01,5.453884134851190169e+00
3.433730762586362228e-02,1.540128961563706211e-01,5.285844273591265186e+00
-1.337515377013087647e-02,2.488428459739660814e-01,5.265243356462204538e+00
-1.146220910613794525e-01,-1.999942218502444649e-02,4.955201132087004190e+00
-2.362878624281113116e-01,-9.716165834671876668e-04,5.157923830738790905e+00
-3.050333889281101746e-02,-2.501407095340036496e-02,5.008218688819287223e+00
-8.093248312277200041e-02,-1.188005630388409423e-01,5.131039805188369662e+00
-4.248077324171711106e-02,2.069970225909838896e-02,5.082484926769707201e+00
-6.551287399849267667e-02,1.677514212228475021e-01,4.952453714516262373e+00
1.312680895561566530e-01,3.059160078116972617e-02,5.119483960884032570e+00
-1.434320196639306544e-01,-1.513396890253900229e-01,5.123304555255509207e+00
-2.865689285576029921e-02,-1.039716035054252946e-01,4.929199240176145302e+00
-1.395819770485906205e-02,8.990427233351905301e-02,5.026941668465483737e+00
1.398060125843648450e-03,4.649522750990821990e-02,4.981255748076982570e+00
2.196066666157638764e-02,-2.618579898306411247e-01,5.066833902036027126e+00
-1.351652924498439878e-01,-1.851258589337094473e-02,4.863918670361752739e+00
8.597670624414807672e-02,1.292870867500757297e-02,4.987323112082965970e+00
1.672378706421089045e-01,7.867661049685453767e-02,4.888415040916405552e+00
-9.207903867057561087e-02,-5.286941754398768317e-02,4.743446820331671532e+00
-1.453730576913340733e-01,-1.889986540931578307e-01,4.876807047507547566e+00
3.951546599318095376e-02,-1.627125352597931854e-02,4.891475381817821599e+00
1.324617685107789267e-01,2.121612270209809470e-01,4.546748371390344268e+00
-2.508886252011753859e-01,4.981730540101389493e-02,4.537512876886233393e+00
2.389584745546944819e-02,-1.104159026600727220e-02,4.558191684601898608e+00
9.972222845558026405e-02,2.894754614423862837e-01,4.839809922097798811e+00
-2.185848495841163364e-01,9.435952910836163665e-02,4.636389907384070419e+00
4.745359022160673679e-02,3.313144847974345761e-03,4.583124334256528876e+00
1.904702722372236812e-01,8.058139810429758298e-02,4.519053734947944712e+00
9.863888681329877409e-03,2.316989132628410053e-01,4.400995795890113804e+00
-3.563791841429739815e-01,1.926896645660912399e-02,4.370266872705803607e+00
-1.858225313308506030e-02,-9.849019545930981934e-04,4.727220286667352056e+00
2.089099287102713920e-01,-8.131647435133042279e-02,4.565124648356290393e+00
1.125259005394185514e-03,4.962625883605498167e-02,4.649435010220434705e+00
-2.941242046464058110e-02,-4.735029363176741779e-02,4.173780203341829420e+00
2.387273239018199433e-01,2.174008442103458894e-02,4.254414532951847683e+00
-7.525325652826943268e-02,1.683285258643572868e-02,4.614533286021172742e+00
1.091599644636522537e-01,1.856442516671290843e-01,4.323071552126386941e+00
-9.233116764364841800e-02,-1.574524301979575713e-01,4.491588181861870588e+00
-9.209309519287053186e-03,-4.299946733230234491e-02,4.228913486814626310e+00
8.175817125130496743e-02,3.746057170982550286e-03,4.244651849695028289e+00
2.468121275513986967e-01,-3.594382673409052958e-02,4.067331403924853817e+00
2.652211703300894619e-01,1.912125700938215322e-01,4.353872031975132728e+00
2.808759719583285852e-01,5.768213457284535745e-02,4.131326908727333880e+00
-2.856990313167928272e-02,-1.844293024762614641e-01,4.192838959817065891e+00
-7.796360581754663288e-02,1.262259776556732237e-02,4.064494788189588981e+00
9.697497216911564466e-02,8.230074086279512424e-02,4.015514509765321982e+00
-7.419352001558569831e-02,-8.915421225987764375e-02,4.293269538849130207e+00
3.892541974411299621e-02,9.590482420871994373e-03,4.058758402752928873e+00
-5.868841279356802609e-02,-6.136801796673636150e-02,4.106996275963035181e+00
6.330843841810263051e-02,1.109027363852436304e-01,4.277139711016120671e+00
-7.178859168366062693e-02,9.694417306592346961e-02,4.180890732184322722e+00
1.946784609297370072e-01,2.418748802721122082e-01,4.386536041738495761e+00
-4.265329571133181542e-03,2.305480527323731932e-02,4.060834441478055723e+00
8.738381673806511207e-02,2.732433533977527557e-02,3.933047103883580142e+00
-1.216015001263896604e-02,1.258132928500025616e-01,4.105648423743371467e+00
-2.991557183439431250e-02,1.072136632003009155e-01,4.070939159468442980e+00
-1.723239124328709848e-01,-1.461449493147161938e-01,3.867763575127607822e+00
-8.582745465938126928e-02,-7.437487596015981799e-03,3.913093663295065472e+00
-1.206150530816418737e-01,-9.796353470988777845e-02,3.893871588522666016e+00
-8.332338201341937811e-02,-1.248304539622683562e-01,3.652480434888512484e+00
6.318621323538342605e-02,5.075475076287394582e-02,3.885501786209481168e+00
-3.782405587183322593e-02,-3.024923946009249187e-01,3.593041056491439011e+00
1.052832542842465219e-01,-2.059254122323959588e-02,3.772370943604305804e+00
-2.553473914902159581e-01,-7.338453602858459324e-02,3.777576060420881454e+00
5.809915092763996702e-02,-1.654973574832805383e-01,3.828745309689586485e+00
2.089420066056824413e-02,1.100728634699101871e-01,3.726743736967778720e+00
4.596266352841373026e-02,-7.349255047975198317e-03,3.464105293377054640e+00
2.639969099613940356e-02,-4.913485308385497248e-03,3.722872738803832515e+00
-8.678547404520503550e-02,1.409488391881122925e-02,3.681168552338591304e+00
-1.277680962001561948e-01,-3.763841739178209328e-02,3.783298427869532965e+00
1.193889355749125081e-01,9.747614327856400640e-02,3.610427379118570812e+00
-1.630641218105137458e-01,5.592206008319408617e-02,3.482667975286709794e+00
6.468423016228934397e-02,-7.348956172994641767e-02,3.600050595174824952e+00
3.086459609887124214e-02,2.047689506596167205e-02,3.737294122863481505e+00
2.232642542141665132e-01,7.112053773007807889e-02,3.759811770436177536e+00
1.300417048414390098e-01,-7.626638816990894895e-03,3.524070623669250057e+00
7.435691263377912363e-02,-1.124716907992164561e-01,3.584969981252906113e+00
-1.422823359558594847e-01,3.950337803254762303e-02,3.457494843350900737e+00
-2.274124838228099021e-01,-1.561700180344177680e-01,3.684735648984956313e+00
1.368362982265257377e-01,1.272060378818623827e-01,3.476132480600297114e+00
1.509688425363150954e-01,2.155412603945385808e-01,3.334440432329181636e+00
-1.101305338264576689e-01,-8.856258871871278138e-02,3.377091558454402787e+00
2.219029174395071857e-01,2.119197920880686384e-02,3.404304839624311185e+00
3.348862867742155580e-02,-5.811605349156365868e-02,3.517694033783747010e+00
2.812690799245244899e-01,-1.439128375124637538e-02,3.242330886587435401e+00
-6.547948191639350879e-02,-1.263839278892532614e-01,3.278268482758486257e+00
1.585892646812888523e-02,6.799536328334724114e-03,3.413872055841764563e+00
-3.481238913079731656e-02,-2.388822768484058223e-01,3.242407855308447662e+00
4.206361100311641066e-02,-8.340523226564211523e-02,3.470712645933804019e+00
7.264161770581401001e-02,4.085206811369784807e-02,3.448012517288534085e+00
7.763643690644793371e-02,3.717574588356032522e-02,3.362256619746977648e+00
5.434049531830204699e-02,3.364272930760457692e-02,3.111294210530197724e+00
-1.133952062795908072e-01,7.906731722066125817e-03,3.400543360228560186e+00
9.318094150692589339e-02,-8.829202777219845311e-02,3.050302144382945890e+00
-1.796597168578532161e-02,-2.113491311998708655e-01,3.274268567685388653e+00
-9.657524577241527464e-02,3.203295047773824233e-02,3.176260198613645613e+00
-1.163635319046239930e-01,8.701776385187784055e-03,3.247057282360483299e+00
1.694611024894883966e-01,-6.765653217652303764e-02,3.102677890461264187e+00
-1.749884071008456915e-02,3.831996247708617520e-02,3.136997911114945747e+00
-1.577114661960150183e-02,2.926924150887125903e-02,3.290432803819443919e+00
2.781724673232542633e-02,4.616088848014025803e-02,3.041729409527528016e+00
-2.817298114636450634e-01,5.400386850392421140e-02,2.891794334438047898e+00
-1.171142393662377296e-01,-3.140089017504996832e-02,2.980032281875736100e+00
8.233022309281884388e-02,-6.378272948038771206e-02,3.265419502257950413e+00
-7.818056211923592180e-02,-5.800190013112700022e-02,3.071534054312790474e+00
1.439151119029606282e-02,5.953073300246744526e-02,3.046670275463511324e+00
2.377599097711362575e-01,1.617178918491797568e-01,3.148304393288091418e+00
-2.367888047235251758e-02,-2.155872018070433271e-01,2.954969676593026673e+00
-1.846464425106122131e-01,-8.878080288512354978e-02,2.810963681857386209e+00
2.573059142263761645e-01,1.113580208453131548e-01,2.838304939704592744e+00
-1.342271485349698368e-01,-2.146699263649435863e-01,3.028884753452343759e+00
-1.938769633138674175e-01,2.327106889940811288e-02,2.942544634747668475e+00
8.804515257438823295e-02,-2.545916318033211723e-01,2.794376194250329792e+00
-8.323734276784800976e-03,1.451994964076172290e-01,2.749220829774995156e+00
1.693656724585593243e-01,-7.073060015561054292e-02,3.080576665302367623e+00
1.014682419044676265e-01,1.029284922365865246e-01,2.936511437997035401e+00
9.337930562343713103e-02,-2.246061594258514857e-02,2.811513666712624815e+00
-1.922537351313462206e-01,-3.706959376333096579e-02,2.859797313797774798e+00
1.254397974570961583e-01,-2.409567466188092255e-01,2.752186778407512691e+00
1.090261824347861092e-01,-2.811438620763267657e-02,2.818150699877294940e+00
1.387515544063064599e-01,1.100149316034028657e-01,2.684938154818464540e+00
4.954688427169103709e-02,-5.135918946029364995e-02,2.703482187605893650e+00
-2.151705768349596870e-01,8.796933066368102516e-02,2.808979930322293317e+00
-1.906265872469170841e-01,5.002349934117507856e-03,2.626471278105076301e+00
1.923251742669450370e-01,-1.050825922510357224e-01,2.624599151527223562e+00
-9.637432640739543310e-02,-1.604165998600035614e-01,2.808250962249875027e+00
-6.122745085126345133e-02,-5.827207046019985959e-02,2.652857189157381779e+00
1.326678902196289367e-01,4.192954686214457258e-03,2.730185217634667261e+00
1.640304308478208184e-01,5.493266639081930552e-02,2.710367228612112100e+00
1.177813290607703130e-02,2.479540515049219809e-02,2.560140823049129821e+00
-3.995034631537817266e-02,-2.010739994551807297e-01,2.714305844020449499e+00
-9.009761863551729588e-02,1.223573393367996115e-01,2.843480648000174860e+00
3.685933628006349272e-02,-1.083161378245786066e-01,2.615356855590094121e+00
1.597709582247658008e-02,-8.534671744847971420e-02,2.558464565504547039e+00
-1.422730061563750592e-01,7.380811673478138157e-02,2.697918503610768237e+00
-4.098401660268525398e-02,-3.697677316012030341e-02,2.643519813798378415e+00
1.473786728651971245e-01,7.312148175984573006e-02,2.393630091296009343e+00
2.546310915380094880e-02,1.207552264509628888e-02,2.461394056002001562e+00
-1.049455423261863724e-01,-5.251683545044333323e-02,2.722180940034769847e+00
-8.538643417276664234e-04,1.425785383292781650e-01,2.573420919592033229e+00
-1.420722047559496160e-01,-9.313278375182798552e-02,2.423778469774878097e+00
2.151832665260673683e-02,1.897044818065090621e-01,2.592635302404533881e+00
-6.170791277568138389e-02,-2.670250921234944980e-02,2.624842361446182437e+00
9.839846686462822012e-02,2.330458933499973129e-01,2.339505706651696659e+00
-4.554955254871344977e-02,3.224728021697176317e-02,2.452218203300224442e+00
8.824277184569227772e-02,-2.391506742916932327e-01,2.584823140626400839e+00
-9.268062743003294135e-02,-2.175511875064955747e-01,2.293663526012498455e+00
-1.284038102475788257e-01,-1.454961566243086757e-01,2.260624851111459055e+00
1.163397289701355586e-01,-1.925622047435235074e-01,2.470668963736846635e+00
1.038126955615354119e-01,-1.498591448474888288e-01,2.474985267394010702e+00
1.845428588507364576e-01,9.946273115023532285e-02,2.467092598017074145e+00
1.934813138207819583e-01,-1.615349979968699889e-01,2.649872692227373427e+00
4.005502359449759908e-02,-1.756175418641283681e-01,2.316943111849855352e+00
-1.627136920144979237e-01,-1.985236114567267771e-02,2.688958484859775400e+00
9.142534530097255752e-02,2.783909157723797947e-02,2.278051632529329851e+00
-6.213806380601786736e-03,-2.130482880226626241e-01,2.106776209482091211e+00
-2.270261026346105382e-01,-1.933658226378794642e-01,1.904644430566406532e+00
-9.277761252808755521e-02,9.104370778665489550e-02,2.048807170278867495e+00
-1.098589700801390762e-01,4.115847576675602665e-02,2.274974440724152114e+00
1.196341837866137930e-01,-2.076659557155709560e-02,2.304121239371841767e+00
1.043220988466555949e-01,-8.136502238330951819e-02,2.496486026612068976e+00
-3.701702889166857968e-02,1.298714385403421379e-01,2.130026716287739319e+00
1.682881337801797050e-01,-1.322514554621600780e-01,2.347749126898587058e+00
3.102821599360860993e-02,1.787007004236745508e-02,2.153293428317401226e+00
1.809745306424616063e-01,-3.617286292769563566e-02,2.195513981245449386e+00
-1.126875900401609759e-01,-2.961759132072721429e-02,2.125389400137550400e+00
-6.758103814585347813e-02,1.211452924388753544e-01,2.199412311525180908e+00
-1.260596353391753299e-01,8.186851807545965365e-02,2.245665788868413504e+00
8.367004845468514751e-02,6.227517218704851226e-02,2.344095257361495488e+00
5.949370740993620288e-02,-1.909105893170841284e-02,2.149859435169732436e+00
4.813487042508875907e-02,-1.776181404217062887e-01,2.193151031113749205e+00
-1.453527975771861380e-01,-2.917966284929985332e-01,2.056713708309388711e+00
-7.908208548956534301e-02,-3.777570575364028183e-02,2.097004243842616855e+00
-1.970819424242263238e-02,-1.615485022736143361e-01,2.274685987011568322e+00
1.942842565559722567e-01,-1.204251771044385078e-01,1.954048547515645051e+00
8.709685367039129988e-03,-9.108581143357352694e-02,2.327028827937721367e+00
2.180577909124702396e-01,-7.850859760767199547e-02,2.196307008692996110e+00
-1.610295430395583538e-02,2.477565352117087338e-01,1.872566616524244276e+00
-9.343995421950114511e-02,-5.343737277752051013e-02,2.128168597829542374e+00
-7.103572546896119722e-02,-2.251268698401872881e-01,1.861545618447322914e+00
-1.716163513216636613e-02,1.053179176474451084e-01,2.149505374901507615e+00
-2.485414775499365236e-01,1.367275924029040177e-02,1.966715956650173514e+00
-1.779704791602993164e-01,1.118182211696014533e-01,1.910497344828406607e+00
8.729933208281384638e-02,-5.652263303730161587e-02,2.116747647388400377e+00
-9.889624250871226208e-03,-6.565967466578119527e-02,1.829907763549873501e+00
7.182841666566311400e-02,-1.060468859484584303e-01,1.981518407759324862e+00
-2.540537177816205167e-02,-1.757366487610379779e-01,2.026344592414758505e+00
1.205739850785340767e-01,-3.458240895596895181e-02,2.033335562836604105e+00
-1.083332447550414690e-01,1.177007979019831924e-01,1.875320889560074367e+00
2.378284778588790702e-03,-1.066222141053233402e-01,2.065610286141758678e+00
-2.209317684531131309e-01,-8.251789300930166549e-02,1.904649459484278440e+00
2.126723008922910656e-03,-6.965592712978321832e-02,1.845200272030224076e+00
-3.441901571439290874e-01,6.042400978312550963e-02,1.841451349814990035e+00
-4.129594863312244929e-02,-2.867392468518977985e-02,2.060060231888352078e+00
-6.073055352388159051e-02,-1.676452032493046529e-01,1.929863624879253781e+00
4.278717478416686759e-02,-1.278456781603743153e-01,1.839359850351625081e+00
6.741157383360568689e-02,-3.978465024240734893e-02,1.905877555627188080e+00
1.856340658142291711e-01,-9.926462945863430420e-02,1.881726173735658536e+00
5.000845056038837333e-01,-2.392352046587951364e-01,1.651416963624306344e+00
-8.170474054799965746e-02,4.755663291126736858e-02,1.843748129440449857e+00
2.181644917270590678e-02,4.990076004845984958e-02,1.941152939966790170e+00
-8.315081698963489032e-02,1.879926346336507625e-01,1.748333902454500155e+00
1.808309322069154290e-01,4.311305540710052425e-02,1.842159517784809131e+00
-1.181256713118644663e-01,-3.228088696132558333e-02,1.867898488794766276e+00
-2.037875035314133942e-01,-3.236118561882696948e-02,1.670880265444241397e+00
4.480947501563441182e-02,-2.494693602623302975e-01,1.917151914394151779e+00
-5.160638627086294034e-02,-5.728815874610331677e-02,1.632458231979526664e+00
-1.204360644116705820e-01,-3.382689867796256911e-01,1.840498254922172228e+00
2.789953608759446202e-01,-5.479213440384741313e-02,1.874259063287695204e+00
7.360824970390091038e-02,-6.880015502224645640e-02,1.600698752837849126e+00
-8.910504059186105663e-02,1.580180671791256083e-02,1.498810611143544413e+00
1.791365057851763698e-01,1.211505094644463459e-01,1.874592693395932486e+00
5.378425165037974132e-02,-1.576593396951273540e-01,1.613423779025221050e+00
-1.798434571589210135e-02,-8.010827728938459125e-02,1.491053370989921856e+00
6.688206429628631988e-02,1.916130950115185194e-01,1.623710285889385263e+00
-5.624623362186015330e-02,4.468856914482312315e-02,1.635141180337280398e+00
-5.940049833223437492e-02,9.682666401426693464e-03,1.615416787035939716e+00
-1.159402616088803101e-01,-3.632012576123522241e-02,1.971120039253779543e+00
8.994966988591884816e-02,-1.282088431882004963e-02,1.788450249662304925e+00
-3.007005458579033869e-02,-1.516515382350918373e-01,1.803307603529412884e+00
-4.710768869342585319e-02,-1.070140352925866723e-03,1.588701492108783864e+00
-4.971980661468066581e-02,2.836874173038579292e-02,1.546976125316270823e+00
1.427415564118355573e-01,-7.037320575492511839e-03,1.688881377125852401e+00
2.511700486075306160e-01,2.506231174008692886e-01,1.863263541457563788e+00
-8.470861926415498844e-02,3.124972157506560044e-02,1.509020302005002145e+00
-8.809459933410692875e-03,4.551540847880401058e-02,1.589243060848806843e+00
-7.123250157145886996e-02,-6.879269437978534352e-02,1.596354082545051734e+00
2.077171086934556340e-04,-7.638536481345960250e-02,1.564123401930909152e+00
-8.732757270555276119e-02,1.118731437976449167e-01,1.709000936238108004e+00
7.124743548923333225e-02,-1.970125109851957601e-01,1.531093506874476651e+00
-4.079798057230521469e-02,-6.919979960501951299e-02,1.490705993523141260e+00
4.482662461101133422e-02,8.499106702867907648e-02,1.535073476274119830e+00
2.614337371441594615e-01,3.135504344443706959e-02,1.619931367732142746e+00
-7.980905639185285894e-02,-3.634818022379045221e-02,1.193372407958821935e+00
5.042441658834340840e-02,-1.147984127966058809e-01,1.596177198892446247e+00
1.556402059975335317e-01,1.519454879505172107e-01,1.511385896186265620e+00
6.090459185041236650e-02,-1.047450493511352110e-01,1.604453977027604505e+00
-8.127338891394501885e-02,6.582931018601773099e-02,1.498772961047973640e+00
-7.338858412672508158e-02,9.852898397057575919e-02,1.658488529130927258e+00
-7.424601759305279880e-02,-2.202917985194635664e-01,1.336780771959112712e+00
-1.068351281616851806e-01,9.309617224934614577e-02,1.565666614585023986e+00
1.003130235722084068e-01,1.304113195059918295e-01,1.250986097952545784e+00
-3.209104556002407849e-01,-8.613047022889497306e-02,1.456134295589591510e+00
1.275275580475773163e-01,-6.505902672867579228e-02,1.572036243717170656e+00
-6.387490617758102493e-03,2.198538371772395042e-02,1.335902623484151341e+00
2.175442674757910658e-02,-1.673113470515016910e-01,1.369749032903276875e+00
-6.939484493303491042e-02,-6.921595525023162276e-02,1.263821567270587032e+00
-8.720160980513144700e-02,-2.030363203505641256e-01,1.660942576799191439e+00
-6.831688217336551183e-02,1.368098837985692222e-03,1.431998245992219365e+00
-4.810663010109245130e-02,-2.636754358121340958e-01,1.299613772677543411e+00
-2.870726379070326351e-02,1.374219138964245246e-01,1.489040382064493961e+00
1.866992116283137659e-01,-7.969487397585389016e-03,1.323092894976826361e+00
1.832959770501290664e-01,9.503736891752657956e-02,1.342065089680131384e+00
-1.069143117919603425e-01,-5.262279095926974612e-03,1.378129217329219447e+00
6.001589910716106230e-02,2.240713191459712053e-02,1.329366946508765857e+00
-1.778468186015152996e-01,9.364247640403348949e-02,1.297945651566051239e+00
-2.024203035497443015e-01,1.826589848781646486e-01,1.326309920353158534e+00
1.331804487711467887e-02,-4.383765849564238287e-02,1.293544589156139013e+00
-3.916345212643836463e-03,-2.261851544401067282e-01,1.230928716962805147e+00
2.651881858060982089e-01,3.353674146325023586e-01,1.201192095278886596e+00
7.848726405271064244e-02,-1.031102508307478322e-01,1.572937419046020802e+00
-1.350730312719106672e-02,1.848329616945148385e-02,1.252129403617490810e+00
1.083004442987061111e-01,7.438043318870014853e-02,1.190248110380089708e+00
3.752895908966739219e-02,3.671067027598536731e-02,1.243706157950197122e+00
-1.420102450867617994e-01,2.087398348352868804e-01,1.325375567923459563e+00
8.461002019421302867e-02,-2.318181538270974174e-01,1.438987659019439258e+00
9.792202607222445787e-02,1.887223207042322548e-02,1.287877031157829144e+00
-1.616093170769841991e-01,1.539092103313481619e-01,1.151402287165292471e+00
3.858354581929413635e-02,-1.787532710105197431e-01,1.306489890199033610e+00
-2.467875466680981289e-02,-1.339831354603178253e-02,1.394642427124352935e+00
-3.224820866171628636e-02,1.453447740982488114e-02,1.325094334746750091e+00
-1.180135896115062644e-01,-2.868145889205210228e-02,1.381707380105325234e+00
-7.810381724660253600e-02,-3.354785532887460953e-01,1.209032365163528855e+00
-1.466701273413929807e-01,1.752712836570638477e-02,1.147706600703294111e+00
-2.134898657446674675e-01,-1.508584876251078677e-01,1.055920389726488162e+00
1.431058892040547037e-01,8.033930897961864825e-02,1.143827088804984404e+00
-7.272641036235467926e-02,2.908904243761719927e-03,1.035055003333974488e+00
6.172138452865346542e-02,1.773583220515715098e-01,1.069927560917556919e+00
-4.739012303933311243e-02,-1.164177452151205494e-01,1.266864250083375332e+00
-4.208140706470486075e-02,-5.194013958441987683e-02,1.364363335352699380e+00
8.932746716263951234e-04,-3.902110824881286494e-02,1.055481115997186858e+00
-3.935650292857199861e-02,-1.670499730364031349e-02,1.081266725248102967e+00
6.203234895967984358e-02,6.526320754943082392e-02,1.199050164427210907e+00
-5.977802624919795887e-02,3.677602965200410523e-02,1.336305150581133416e+00
1.912881123034411990e-01,4.567514779688382903e-02,1.224119077225336305e+00
2.093057970430400871e-01,2.109394552697998193e-01,1.338517159390667510e+00
-4.347301314919749249e-02,-1.905126734068172609e-02,1.142935966431435579e+00
1.370712975060944527e-01,-2.075731584834350774e-01,1.136417999474179208e+00
-3.731486349001403302e-02,5.743536303240511648e-02,1.251552029307304803e+00
-1.474226692931678018e-01,-1.301174239449434666e-01,1.180732372520817641e+00
-5.422814915021978086e-03,3.260248197811727727e-02,1.170276023859548653e+00
1.031764005632623965e-01,-3.977523310768035780e-02,1.313686677797849311e+00
5.452897829740670915e-02,1.401535615900273424e-02,1.017313426736385029e+00
-3.290925592528928106e-02,-4.339591263795061077e-02,1.210056260103001824e+00
-5.450094555871809465e-02,5.295641828340807988e-02,1.072629676270430821e+00
-2.471410705301110150e-02,4.255746688079926204e-02,1.056003772964344556e+00
-1.944716042140528789e-01,1.370169460913920056e-01,1.038370889494514504e+00
-2.703847341041513974e-02,-5.407790912612883694e-02,1.180881695674927956e+00
-6.653585016561318344e-02,9.705510277989218282e-02,1.183819558023343266e+00
1.116643692459669407e-01,6.237657779900974975e-02,1.097767712351922498e+00
1.783512019263136517e-02,7.665860207390662318e-02,9.064308708574411177e-01
5.327626718929813487e-02,-1.888868805299853681e-01,9.515265748794072831e-01
1.002460795904322882e-01,-1.268274337908258109e-01,1.034655907088644744e+00
1.043923593338291073e-01,4.712741979879543066e-04,9.539830039586771893e-01
3.058244014353360130e-01,-1.638990067117774563e-01,1.122473086319546232e+00
-1.432947352698138999e-01,1.020959557217614999e-01,1.142055986437537252e+00
-1.542929655905415642e-01,1.163248767819958507e-01,1.060838491386504101e+00
8.654913956985676657e-03,-1.403798838095491885e-01,9.670052674837202877e-01
2.801070890867577920e-02,4.449024240914310063e-02,1.402425083199887679e+00
-2.584145036227745648e-02,5.383323042089074167e-02,8.698778991231136404e-01
-1.580446428502396139e-01,-6.012036170152355169e-02,1.147554277725211014e+00
-2.291262234104825823e-01,3.871993180724699057e-02,9.085684069037162081e-01
5.369467898585327664e-02,1.351766574813680621e-01,1.115794122387822940e+00
6.203232177006297310e-02,2.199998640268059635e-01,8.494724243618871906e-01
4.255154936647033946e-03,-6.059822167740592375e-02,1.039178046086564056e+00
1.826945064128610297e-01,6.561017109290546989e-02,1.001820801718418030e+00
5.750184139438896391e-02,-1.513490197843906371e-01,9.868385133769653761e-01
2.980154738891358512e-01,2.099004888058846607e-01,1.002918477749491721e+00
-7.287485525557222538e-03,-7.180819068473526072e-03,9.657172095002192203e-01
-7.967146193159613254e-02,-1.430102635363293406e-01,9.249582162544408570e-01
2.265365111342903248e-01,6.964548533877412684e-02,9.594481584383778294e-01
1.107816204650538712e-02,-9.388035773352440549e-03,8.956918759728031976e-01
1.545809362303019602e-02,-2.585538431220638089e-01,1.029667349381495178e+00
1.354125362502301422e-01,2.559679634442756369e-01,9.821350852126226050e-01
-9.958773637385892608e-02,7.831912856883670171e-02,9.833523371063445095e-01
-1.610253010593892115e-02,3.686012342866318986e-02,7.813661127759187197e-01
-1.008228359587023809e-01,-6.173925364525784110e-02,6.917925892231042706e-01
7.488823485662829751e-03,-1.104470799131330311e-01,1.108235024268316993e+00
-1.681741805497665582e-02,-2.120814677086430011e-01,8.422678380139213550e-01
-1.430614350761912935e-02,1.026706453492721854e-01,8.940898892140858312e-01
-2.295614345236611509e-01,-1.224101221409297224e-01,9.730664834926647799e-01
7.107638603063970613e-03,-1.119599416963287276e-02,8.049116984352022719e-01
1.056416139929023390e-01,-1.535576787248544954e-02,1.099634126479578811e+00
-2.389374103439215746e-01,-3.182128453796951445e-02,1.147402305703988157e+00
-4.821483859535402594e-02,8.688258967041823100e-02,7.819153565522350968e-01
2.229872500589008266e-01,-1.070957269539992707e-01,9.533347411927430848e-01
2.333962469237854664e-02,-2.315391075430442078e-02,8.072849991943751302e-01
-2.444175327585302870e-01,6.667428762016600063e-02,7.583277805948565042e-01
1.293303169966944499e-01,6.357035388218421068e-02,8.536143443066271930e-01
-5.801595385908982910e-02,1.585613793834362295e-01,9.679415253585356149e-01
-1.329050356029637392e-01,1.384584341553461023e-02,9.827475523581091776e-01
-1.013523019582049205e-02,3.958474611783962399e-02,9.450191711920431503e-01
-7.682329157948373025e-03,-1.334238983172426618e-01,9.782428465584920296e-01
5.795646872340792267e-03,1.172713357520705629e-01,8.117898544655222093e-01
-1.175244204147409821e-01,2.692547907598829560e-01,8.463233145064253948e-01
8.131404237404037116e-02,3.972197843268789330e-01,9.211650021884929540e-01
-2.812295016766860334e-01,-1.221478847403896228e-01,8.907613275002191910e-01
-5.957653290121067008e-02,-1.403947502779292478e-01,7.522896482145250419e-01
6.415676123327923586e-02,1.959975674333705453e-01,9.353478335814290334e-01
1.082851961018511111e-01,5.674342200114185220e-02,7.938248832161124424e-01
4.910481755020842248e-02,-4.816455721024458236e-02,8.098090479624142635e-01
-1.783821730306308639e-01,5.777969439075185919e-03,7.811686869249383491e-01
6.259885171124099368e-02,4.729008233874110179e-02,8.411408777318227781e-01
2.037978704933273225e-02,1.569694561272877431e-01,8.502664830647573835e-01
1.456830372562391979e-02,-4.882611644957433189e-02,8.821065020995791928e-01
-1.351732200740388655e-02,-5.341850402273980170e-02,8.637906841033562433e-01
5.168054705735242171e-02,-1.714982434528256050e-01,6.690648646120667120e-01
-5.329152534609694902e-02,4.996744554996123550e-02,8.220494688409001327e-01
1.790748071636985572e-01,5.860925946730970171e-02,9.704645025339971864e-01
-7.429224792866080673e-02,1.052774601406385457e-01,7.619455150421881040e-01
-8.546654204338281768e-02,2.483473918887551812e-01,7.386655633376398855e-01
1.768382284089622392e-01,8.518096357458609935e-02,8.295833019590376223e-01
-6.578297961387606640e-02,4.941961280584695332e-02,9.288260823141617495e-01
6.969990588937505227e-02,2.494149295105068387e-01,5.918270103608999078e-01
-1.474214444995370354e-01,4.592842771442699756e-02,7.335980234364350983e-01
-2.137707825957390340e-01,-3.443546835460559868e-02,7.878641538311195180e-01
8.738685040899424328e-02,1.013592298897865174e-01,7.240618512088147218e-01
9.834812355081751223e-02,1.251088461173854860e-01,8.393189696778409203e-01
8.742605084691117134e-02,-1.914060022048961474e-01,7.000118972325973798e-01
6.115476062324681772e-02,1.392601903950048056e-02,4.867827073321812081e-01
-1.186977581872007172e-02,-9.239778280511082298e-02,7.114429919539730918e-01
1.017332434817083270e-01,-1.026474761599225627e-01,1.031593983685299865e+00
-1.149213652115410877e-01,2.355854110188089767e-01,7.060469558204012230e-01
2.674646882137264869e-01,-1.176691116252711333e-01,7.279727952494234877e-01
9.302504027297525679e-02,-4.394866296678563711e-02,6.936786749258354590e-01
2.095474758167119589e-01,2.912774694699932481e-03,7.664691699222762056e-01
-4.225582313404704915e-02,9.398392183778520037e-02,8.573548678816541591e-01
-1.329083143356893648e-01,-1.831024270752718563e-01,8.027934983957062398e-01
1.030976581245279800e-02,-6.448000961430837286e-02,7.597765373621002682e-01
1.264187754687899623e-01,1.515583215246474880e-01,5.696943130925352650e-01
-3.590679834751068361e-02,-1.588264659361056930e-01,8.250939157156208514e-01
-1.622133840607509758e-01,-1.652140604423351367e-01,6.748935537032013654e-01
2.459121753737273375e-01,-1.333130680731828555e-01,6.692772727477236394e-01
1.661086415705472774e-01,-2.267267361880245247e-01,6.279162895962142610e-01
-3.047947893616428580e-02,5.060230486719563547e-02,5.417056186399243911e-01
-2.964766582938491851e-02,3.989991643492288992e-02,5.098883305295874857e-01
-5.007332038538165470e-03,3.684800543679362522e-02,9.033046674708797852e-01
-8.242488728034944034e-02,-1.425533568281687515e-02,8.553812065815720178e-01
-8.579495787396687612e-02,1.036858768376330980e-01,5.507478961626953717e-01
1.397294776016865525e-01,1.133952640432771969e-01,5.861507745731480146e-01
1.001212552877381486e-02,-9.407616971729525213e-02,6.114539586800784576e-01
-1.061069752515899772e-01,1.346627811212855186e-01,7.302895188457818598e-01
2.062298416617180108e-01,2.139346218727091742e-01,6.512351619526525193e-01
-8.690912194189329143e-02,-1.832789099077862527e-01,7.136130652611668568e-01
2.248491279210756422e-01,-1.705416558035976471e-01,6.809107160803020697e-01
2.101903638120751830e-02,-1.772075468858330671e-01,5.917995755372930100e-01
-9.726096792438670979e-02,6.078500471837121159e-03,3.894746788906184309e-01
-4.986172938280485079e-02,-1.489227093852796280e-01,7.169212796825297218e-01
-3.822092879285318712e-02,4.701252275899795580e-02,6.261064800181608270e-01
-2.559287533767115597e-02,1.091334834201470178e-01,6.807286529127890562e-01
3.206756427330662018e-01,-1.192073257807459846e-01,5.242563236242433478e-01
1.100319874846304447e-01,7.357159338510935176e-02,7.361123326782949006e-01
-9.292250217833536441e-02,-7.974610516739992494e-02,8.450200417238358241e-01
-2.342117435819019225e-03,2.335688854536529385e-02,6.568159776585124066e-01
-1.006124312821952138e-01,1.405616750467593434e-01,4.862216062214465562e-01
-2.236444811114970121e-01,7.460271299567704240e-02,5.150616676329220489e-01
-8.236993269343993729e-02,3.948502739231598418e-02,8.754761131876397373e-01
-6.134345028147891038e-02,-2.125793845757621425e-01,7.237255075485541367e-01
3.670778132700904667e-02,-9.580273351832954698e-02,7.040920340503715735e-01
4.682632751158856410e-03,5.395842202544395144e-02,4.963084941445470299e-01
4.108055756541074272e-02,9.755135130402389776e-02,6.709075513341649089e-01
-1.003691739726906701e-01,-5.358194672286107491e-02,7.264362995766521225e-01
2.147252005013798315e-01,2.630031895768661365e-01,6.702910127921360983e-01
-9.287303085904517752e-02,-8.423748827070995371e-02,4.034380985388431040e-01
-2.566660330475883933e-01,2.140006143783880488e-02,3.302614743897929195e-01
1.583371471264803654e-01,-8.746733499211108154e-02,3.754765585840788011e-01
-1.102538673428995510e-02,9.478888307613531072e-02,6.530602867580506121e-01
1.799074668339849525e-01,-1.525509647477706621e-01,5.324437710314886552e-01
9.657262334154982988e-03,-1.084067717041856255e-01,5.512936759385801411e-01
2.037400599173246618e-01,-2.668568187708080797e-01,5.153887480349407246e-01
1.944105228423955931e-02,3.104190009251881488e-01,5.847379984517209195e-01
-4.654625482217333854e-02,6.264251382504143484e-02,4.617176201390503776e-01
-1.161745696335301711e-02,-9.231278146902734127e-02,5.911539496804245619e-01
8.819268611941516456e-02,2.429209439714771213e-01,7.222468528103043184e-01
1.301417676064152429e-01,-3.517363876882423912e-01,6.583269095647625857e-01
1.077811539494373666e-01,-3.889886611171046449e-02,3.850290711499949614e-01
1.909931761017216734e-01,1.464665339772395214e-01,6.949069341507541075e-01
1.668714054505995303e-01,7.512452863731032549e-02,5.354557085078111012e-01
9.682681191274900012e-02,1.299291885918435197e-01,5.156030786101711838e-01
-6.111523807149729648e-02,-1.323359197940468801e-01,5.563360066311368035e-01
1.256702264495862253e-01,2.073558729947978796e-01,4.984315815868803345e-01
4.469933065743330637e-03,1.037564342710561582e-01,5.686141482788676926e-01
-1.789654091959727578e-02,1.337931212662819315e-02,4.994898832321910676e-01
-3.113127635514394143e-02,4.466432530471627083e-02,7.398356012140072657e-01
4.753399691789460951e-02,-2.130897966718566655e-02,6.084696858015025134e-01
-8.778364892628645610e-02,-7.370862038767403424e-02,5.803635111499844124e-01
-6.267662330538081861e-02,1.484150654837824990e-01,4.614527854436476506e-01
-5.196014691241500338e-03,-1.686526781175519130e-01,4.329650957112384790e-01
-1.033846784868509699e-01,5.744655382715940090e-02,6.208545577945523419e-01
3.697280153214769355e-02,2.242600475832904131e-02,6.218909775894087000e-01
7.517682117984805790e-02,-2.300527276632938767e-01,6.641169154900081750e-01
6.270969742709604777e-02,-8.598214394649568437e-02,7.259470998067720782e-01
5.728272658185972616e-02,-6.518106050029828791e-02,6.235437741883355089e-01
3.708016409010507497e-02,-1.800464392000583891e-01,6.845461443449825101e-01
2.215878194538708490e-01,-8.670191533257655403e-02,6.814615888666498700e-01
-2.823346117809266698e-01,-7.631095004020771455e-02,4.543452407585620301e-01
4.818138207864077101e-03,2.339827163947562350e-02,4.291534039040194592e-01
1.158202990397058513e-01,2.349792985142930002e-01,6.031491585381416609e-01
-1.119887831600681616e-01,-7.896153988514509336e-02,2.998537611207743869e-01
2.235007745945398749e-01,1.293246232772873316e-01,4.649319180767789161e-01
-8.852928710949950486e-02,1.420531456456680941e-01,4.705416030602610489e-01
-9.753948961065413148e-02,-1.814360471181316603e-01,3.676149379850069399e-01
-1.480647134969798606e-01,-3.776212732508506947e-02,2.893947621522775515e-01
1.571968321757135356e-01,9.552252862756301088e-02,4.453331917663329031e-01
1.430304890116419481e-01,-3.251602043773214185e-02,3.381135437397717602e-01
8.768195267868611475e-02,7.694985765088807605e-02,3.355584736017734881e-01
-1.728219425457703726e-02,1.395707380291740796e-01,4.745116178426022069e-01
2.329544275595863689e-01,-2.083135162208795965e-01,4.703457302809738727e-01
-2.976166419409490786e-03,-2.307984602578679600e-01,4.414690458697932973e-01
1.000511472850603295e-01,-1.160692837089245394e-01,5.601286652367177821e-01
-1.746552226950410722e-02,-1.419132514923264199e-01,5.598887800842206053e-01
-9.995964233069694338e-02,-8.035136475306879633e-02,4.544152197064560417e-01
2.986670073276090354e-02,-7.384935875012121897e-02,5.607330700282681102e-01
-2.023274947363772891e-01,3.021214943751441839e-01,5.043802155573705592e-01
-2.373910728502911516e-01,-1.929788945964042435e-01,5.264361178906150629e-01
-8.091926407826376122e-02,-3.597925517676836549e-01,2.289059537171340974e-01
2.782277618858147727e-01,-4.055405064198371046e-02,5.401997931854637391e-01
3.927492691052410917e-03,-5.073695688584545227e-02,6.111722516987154741e-01
-5.139874450545433432e-02,1.241446730582650426e-01,5.132253506534217857e-01
-1.536427012711967799e-01,-2.628180723784056746e-02,3.364359046705298617e-01
-1.509532994750071438e-02,-7.140430574231374818e-03,5.477912227311702020e-01
1.262555015456308209e-02,6.516760166032685431e-02,5.621490652548415401e-01
1.482751075872734969e-01,-2.769275750907120720e-02,3.890376333778634566e-01
-2.903838040852282573e-02,3.125066127408612782e-02,5.927348980729975070e-01
-2.365095829964414809e-01,1.525437072286350004e-01,5.765741878001481302e-01
-7.034447817703044781e-02,2.821301895146225563e-02,3.615113349900409001e-01
-8.065760098467537886e-02,1.721894728775888728e-01,4.151150944617560401e-01
4.659503635350546735e-02,1.872889969356882345e-01,6.014359423509748614e-01
3.150552060607238886e-02,-9.439125018245635157e-02,3.528954019035341894e-01
1.149898481287408014e-01,1.560058430993676581e-01,3.756138571700021744e-01
-1.571937888916923320e-01,-7.206489578587962908e-02,2.143190938532311962e-01
-2.990462437126781281e-02,3.249244025768235206e-02,5.336393889105156552e-01
2.338537124136668421e-01,-1.377191210620387907e-01,3.870236908742540338e-01
9.137379136110916622e-02,2.134557332965907328e-01,5.079286858538419880e-01
9.317625736116391666e-02,3.070010228481492853e-01,6.377648358770258152e-01
-9.454815997491225477e-02,1.176616571389841603e-01,4.290016339035671589e-01
5.074485579358562620e-02,-2.109488255281881108e-01,3.703419390641373710e-01
-2.086208669490737522e-01,-2.119890265127839235e-01,5.351847538158375217e-01
2.125419472019217104e-01,-4.415348136958154729e-02,6.560542019580560824e-01
1.610837950735590635e-02,1.301021876522257537e-01,2.208612544706491931e-01
2.074779523232035405e-01,8.152438575101578211e-02,5.174380356116843327e-01
1.793997712551244073e-01,-2.958554181319332788e-01,3.129060449819567880e-01
1.162691447749443774e-01,-7.372806566264210326e-02,3.469010744123769974e-01
8.812796840990548553e-02,2.118448010185221275e-01,3.033114570039795455e-01
1.436550568729847988e-01,9.620495777257367931e-02,4.661235845094145458e-01
9.522119516854783694e-02,4.748499302565993563e-02,4.282351445410380042e-01
8.907758033550110602e-03,1.864045945415111205e-01,3.168877905989174737e-01
-1.792552294392124601e-01,-2.427914081580183625e-01,3.053486934285734034e-01
1.807830218988224491e-01,-2.024405750188835451e-01,3.303119229889745490e-01
2.756728549152716312e-04,-5.748138240910578151e-02,3.316752215466776121e-01
-4.795223596917076725e-02,-1.836328212155045533e-02,2.627793029988226281e-01
8.581934121171613805e-02,1.495110770287257640e-01,6.379413986134739867e-01
-9.340820115483347563e-02,1.151665507819190325e-02,4.606432184958140219e-01
-2.420025053287722661e-01,1.375716177223594849e-01,2.178613162143046289e-01
9.328251518747444904e-02,-1.334767113834176705e-02,2.596228280726820548e-01
-8.107978999395507036e-02,-1.350317181311157244e-01,5.755399247131320895e-01
8.919835330946718210e-02,8.342543355168760555e-02,1.881194105211571599e-01
1.162398563589238897e-02,9.240980807515224160e-02,5.157466442866891487e-01
-1.154352871860750973e-01,-9.823800877963663469e-02,5.263696238583872589e-01
-1.794516559824479995e-02,3.569480749319522278e-02,5.610566226504785092e-01
2.173259825872687900e-02,5.401404925973407600e-02,3.693974876960877118e-01
1.311941436484636292e-01,-6.344792562882203835e-02,3.649011858244899931e-01
-2.878918429644333754e-01,1.701092983370819101e-01,3.768486495666324987e-01
8.169637217428304954e-02,-1.201899287532312566e-01,1.666095763869220592e-01
1.175961295386641209e-01,-5.703442386778363044e-02,3.706201640385702878e-01
6.149285415276192074e-02,1.102772018540687654e-01,3.563488536543557017e-01
-1.084904325505119532e-01,-9.353680050978716021e-02,6.519925532526759104e-01
7.102862296754039462e-02,5.134071693717495374e-03,2.719800729171357179e-01
-5.671310369922407529e-02,1.453718446584048030e-01,3.141294532857262234e-01
1.508434657617125363e-01,-2.233139386024757533e-01,5.188689408593616381e-01
-2.915871920388584532e-02,5.376154122589261314e-02,3.270481776612046976e-01
-9.065601565973432918e-02,1.471415107194980754e-01,4.066536764524047443e-01
-2.338564832842205121e-01,-9.834282477790862176e-02,4.512344399635614955e-01
4.746758405395542016e-03,1.551750141033540475e-01,2.717314909311787652e-01
-1.891018777975313203e-01,-5.985805331921442013e-02,1.890789887202554975e-01
-6.980707900867809401e-02,1.707163546052925807e-01,4.940728939157283395e-01
1.676078499375229514e-01,-8.106946290575449410e-02,2.201886548316125958e-01
-6.860082976444198399e-02,1.036950826764834882e-01,4.021980858371647649e-01
5.370450778892982974e-02,-1.208034618260677567e-01,3.519298965035516646e-01
9.977398982267779437e-02,-2.399145344236457839e-02,2.269183761798915788e-01
-3.838492727980442193e-02,-4.338045941750552914e-01,2.872533924549208195e-01
1.627032323505097910e-01,-2.603974049909623667e-01,3.167900830054053984e-01
2.580481700644571830e-01,8.707429986107052822e-02,-4.441585296999020493e-02
7.100466083025334940e-02,-6.353681286878109721e-03,4.980358057754446892e-03
6.244536296859515452e-03,-3.265925944284350096e-02,3.563878815826956314e-01
-2.785685749831559588e-02,3.507013403091107512e-02,4.379732469960301855e-01
-2.189722188928573676e-02,-7.338845124749432403e-02,1.558153313180515032e-01
9.957183159939594908e-02,5.570241640225801621e-02,1.773569459274579319e-01
7.020434530630162082e-03,-2.323573539369681584e-01,2.877961615470566725e-01
-3.721050861387609210e-02,-9.440976324354136140e-02,2.623911174067014573e-01
-5.185361504421955037e-02,-8.472031566182638973e-02,8.205241712163870160e-02
3.209477229856940728e-01,-1.012362931132307908e-01,9.159911116974511769e-02
-1.092315724401732580e-01,-6.044998406265622050e-03,5.339804729777254400e-01
-9.097627951467106289e-02,-4.458025825900429479e-02,1.541667318077677429e-01
2.586978972417147693e-01,-1.730195596472430541e-01,1.866323837887635950e-01
-4.052579161438557565e-03,1.008838016725605718e-01,2.947553582499418123e-01
-4.301179762223990288e-02,5.382740737229742972e-02,1.364010879380350427e-01
2.382021877204662796e-01,-2.732947940134814596e-02,4.091083832640964313e-01
1.085084627676689284e-01,-8.231219610388819038e-03,4.123491292199686908e-01
-2.014780002890450561e-01,-1.004847754332398174e-01,3.302667596679140227e-01
-1.651403875742732952e-01,8.003613052578069376e-02,2.399431204421937358e-01
-6.792692941470707124e-02,-2.138129500081520917e-01,2.735828899622978483e-01
1.164517880201741129e-01,-1.095731377029329628e-01,3.299549034904141614e-02
-3.671101859117610333e-01,-1.801365454314674819e-01,4.288549416038979212e-01
3.074315245554755036e-02,-3.586410160832458061e-02,3.627085698214273513e-01
-2.182920833816422435e-01,1.255936844081005366e-01,4.900343493645317738e-01
8.086145706102594588e-02,1.021218384999209722e-01,1.641707212416826656e-01
8.606663128865429946e-02,3.717966849189024287e-02,3.115182784519693326e-01
9.616892146752049897e-02,1.021576251998465995e-01,4.037330178357852462e-01
-4.295488397949182025e-02,2.530937239183113710e-02,2.031785262636244538e-01
1.333559211460180471e-01,-2.133615751684739964e-02,1.816452550889469109e-01
-5.886656534744654640e-02,-4.116626061548230020e-03,1.732721750032397701e-01
-1.963278439519081375e-01,1.829488024880208674e-01,2.617717872273085389e-01
-2.162417447867794051e-02,-7.185411032499700035e-02,3.522996269672786784e-01
1.555107335564336057e-01,1.471906718590266783e-01,2.219016023305765695e-01
-1.231133813867053700e-01,3.585757052325878880e-02,4.258058278858227186e-01
7.309942096577032311e-02,-4.229054742313800852e-02,3.204051531500854422e-01
1.222848581236433557e-01,-2.110668278728058400e-01,4.813502185501719599e-01
1.356278742200515697e-01,-2.593708827222042657e-01,2.990364871947715497e-01
-4.503661225989254169e-03,8.503526356923157836e-02,1.697913791009626472e-01
-2.544319316696674882e-02,5.658077384889706463e-02,-6.868576569121200015e-02
3.517546735894843540e-02,7.607654850694064996e-02,2.769082290434546900e-01
1.144864141849178257e-01,-2.909792057637160603e-02,2.075050164434528166e-01
3.957848362913657381e-02,2.901178009571235561e-02,2.255315030247345143e-01
3.143266684923995968e-01,-1.506495692184991186e-01,2.860991645682292028e-01
-7.249314726364755601e-02,9.874273257747898103e-02,3.365168794820896925e-01
-1.166007940910504803e-01,-1.833615281330460978e-01,3.864320143158257448e-01
2.124630450167261930e-01,-2.701140840707572655e-01,1.988477934506585054e-01
-8.740644387592842735e-02,8.821638141096407870e-02,2.264048059579925887e-01
4.003347711620606347e-02,-1.418130517648531208e-01,1.410094542914293869e-01
1.344394000039601522e-01,-8.270774932260778478e-02,4.471369184296329347e-01
2.859821780732732521e-02,-3.280535610664939627e-04,3.520704134727329904e-01
-1.742278827155121224e-01,-3.466865901001087852e-02,1.985492697604350487e-01
1.245677546374329842e-01,-6.854283305998965826e-03,3.812776826435058108e-01
-2.645495854432952654e-02,-8.771346980363009527e-02,1.325304458013179254e-01
7.737053678964526948e-02,-5.183292631915437446e-03,1.448428270401366791e-01
4.833849965488708905e-02,2.002429831333741028e-01,4.152937305844282001e-01
2.197564914974426409e-01,-1.457382752977640084e-01,1.790378936749289773e-01
1.311175341697593671e-02,7.451515818482540299e-02,6.370062344021308609e-02
1.095205073744902335e-01,-1.825818411417061415e-02,3.093782909667174841e-01
6.900316369796824501e-02,3.689147508340732962e-02,2.248155461297979552e-01
1.259991775302668759e-01,-2.293704873147284565e-02,2.950738858474553639e-01
-1.966147109637522705e-01,2.414403357642244119e-01,1.520158535780668507e-01
-3.273084401250835884e-01,-2.290911920233971652e-02,1.221549955235661511e-01
6.932812647392609662e-02,1.507782129867527299e-01,2.920943840018347948e-01
-2.481959064895627662e-02,8.398701355344440067e-02,1.887420331639087234e-01
-3.296495827480327295e-02,-1.415663560461651593e-01,1.509553770687601382e-01
1.105071072547797739e-01,6.486856056602913201e-02,2.760705417364537895e-01
-8.107067817831857537e-02,1.596149885692259851e-01,3.296551824286255150e-01
8.571538342682144540e-02,-1.454035717013521245e-01,1.553115025468948251e-01
2.201597805295837929e-02,-8.660178086068862080e-02,3.010845239796529071e-01
-9.203465970335863999e-02,-1.388040901987766806e-01,2.172693967379914493e-01
-2.781117386565172822e-01,5.040864448868685212e-03,3.442849130733846574e-01
-2.638267518454432414e-01,6.741307830351074559e-02,2.631407107929465972e-01
7.185253787342968379e-02,1.037044017828355758e-01,2.355434945758373422e-01
1.158980150826887379e-01,-1.995367620472917880e-01,1.827445061102682955e-01
-1.221040244186333279e-01,-2.574473962832125179e-02,1.305496363499518697e-01
1.269648890528135843e-01,1.200061694098990550e-01,2.166147825978684549e-01
-1.149685961238741394e-01,-4.439020095818937105e-03,2.661763642732116186e-01
1.385207772173891461e-01,1.204376340403546936e-01,1.545339836869697447e-01
4.312887342258439616e-02,-1.566557705023984559e-01,2.792867387622735009e-01
-1.826255661959498566e-01,8.259552764783661960e-02,2.658088462407675046e-01
1.006748494029085922e-01,-8.893447164233489466e-02,3.688257395575185726e-01
-8.772469174872164765e-02,-4.503997803948611711e-02,7.788736500062228008e-02
-4.556696296596703805e-02,-3.065159292227037993e-02,1.351984204408405166e-01
4.130021465357756189e-02,-3.696375983542814214e-02,2.904244230703577068e-01
-6.416532360795017265e-02,-1.938854775892460969e-01,4.789326757991134442e-02
5.052568236708865346e-02,7.022267747471599986e-02,2.300009960799388187e-01
-9.556971986854469192e-02,9.207786910048171942e-05,2.136088831332471488e-02
-2.237299774931401919e-02,-1.640376286588746957e-01,2.073336691296578105e-01
1.332261594662469406e-01,-3.421887746288628657e-02,2.876266892046325241e-01
-1.563939905801189634e-01,-1.566749062408913373e-01,1.351046293910690699e-01
-6.478316875389866780e-02,3.839210842970581378e-02,2.307448402285640701e-02
-2.418670630227646445e-01,-1.725793325254298405e-01,1.802379912425652042e-01
8.434796660306624616e-02,-1.034156378356653194e-01,2.690871644639942217e-01
2.575319688603106699e-02,-9.264773998543510136e-02,3.636557764208006027e-01
1.094497295382908658e-01,-1.474426622446229906e-01,2.136622304854310372e-01
-3.287207782826908481e-02,1.839345057453596610e-02,7.460470408447164581e-02
-1.374694818761583170e-01,-2.262700382883116035e-01,2.130280232711289634e-01
7.273219367635470889e-02,-2.841925573019086770e-01,2.578431282509154876e-01
3.579922651494434060e-02,3.218406460606275110e-01,-7.832032273808862965e-02
-2.907670901078297787e-02,6.412792402576202033e-02,1.595684203385988875e-01
-8.338219304424790423e-02,1.256016316831159996e-01,3.055598116379964480e-01
2.376095552260515040e-03,9.510595113561962077e-03,2.782762301888426215e-01
1.578999176726081366e-01,1.027082490036860668e-01,2.353599529172310245e-01
-6.623908094390963675e-02,-1.189340611287235533e-01,2.491106139699190147e-01
1.270259284131869566e-02,-1.555272582860395547e-01,1.818638044668169640e-01
1.327928543659993577e-01,1.515599400691557685e-01,3.330939120241344087e-02
-4.087533479416601695e-02,-1.076608112177930843e-01,2.175152319992000038e-01
-9.326157163785519719e-03,4.071634067311263872e-02,1.883067505393118748e-02
1.054667589000966438e-01,1.125481462410141131e-01,3.441231470796379810e-01
-2.182369644263785768e-01,-2.202061528441955074e-02,3.108322167127499647e-01
1.503005880565580835e-02,-2.674816160120604414e-01,3.484624390414486905e-01
2.256220265687442633e-02,1.724014470392458698e-01,1.046209756105031530e-01
-9.711690049882924780e-02,5.072311070395137123e-02,8.801678979434798822e-02
1.000716148601785566e-01,-7.016850070233490722e-02,3.737118858388495668e-01
-9.281368486126261030e-02,-4.800626438057138679e-02,1.132424734232095193e-01
8.939459864857600760e-03,-1.652127765017180061e-01,-5.524691740753751718e-02
-1.242733165840963078e-01,4.878895942746779707e-02,9.567285473823207431e-02
-2.520386944594085188e-01,2.249320680537578165e-01,2.990236011386653847e-01
-8.179362780913979059e-02,-5.148561906576558378e-02,7.728086906827398572e-02
1.074980466007857509e-02,3.150784520926794979e-02,2.966569510657905417e-01
5.059187064779522430e-02,-8.004673740744025490e-02,-4.280036691484166017e-02
-3.389653086192717657e-02,9.871002530095210337e-02,9.005212354618857828e-02
-3.215923360887755489e-02,7.852862107922983781e-02,3.004025107897893010e-01
-8.713248509094227712e-02,5.360077269661712301e-02,6.437899005496293403e-02
1.142934980310687243e-01,-1.013793430810011054e-01,2.410112950081639005e-01
-6.250191843703628569e-02,-6.140412319611124325e-02,5.176838319789173887e-02
1.381835792986839265e-03,7.270425511849627764e-02,2.604988128856786100e-01
6.167278927174248832e-03,-3.448639643778266262e-01,7.654720093552611071e-02
3.221142589541647894e-01,4.911272592563469680e-02,2.787239789808235724e-01
1.975684022891117664e-01,-1.349159054784616896e-01,1.212822742090375605e-01
-1.388563700815377208e-02,-9.825611561604163935e-03,3.466391365184169019e-03
-1.090020508577802111e-01,-1.384107109719777927e-02,-6.911850726303302161e-02
-5.190150057341426371e-02,-1.525991382481254599e-01,2.558994142158476093e-01
-2.769408180729445931e-02,-9.487604911331613822e-02,1.183721072690686049e-01
1.116306895460678489e-01,3.687409831618401052e-02,8.448649013727080326e-02
-2.928782678779687787e-01,-1.123393683141690191e-01,1.434833745939955996e-01
-7.008196339749751813e-02,-6.601739320697376512e-02,1.564001221330886815e-01
-4.960001916529022808e-02,-2.150253553569572151e-01,-1.443948462930695620e-01
1.609430020856255847e-02,-4.292970620262434416e-03,2.195900276953197672e-01
8.000423432805383109e-03,-1.893308191944465327e-03,5.051243950671815974e-02
-4.352295977371849894e-02,-1.147517160642530162e-02,3.360095916879947686e-01
7.011086891297231560e-02,1.154565343825846996e-01,2.524680055510520882e-01
1.453186405321684749e-01,8.734308874090467023e-02,3.967834825484071182e-01
-1.084324955193950862e-01,-9.121542545213198738e-02,4.801842596892152981e-01
1.669816026519449492e-01,-1.026138316981537735e-01,2.434912126654190656e-01
1.332525227503555121e-01,1.045098529207260374e-01,1.197825108282775941e-01
4.155525521669131694e-02,4.217299114234834834e-02,2.022571038959671830e-01
-1.214312945550148487e-01,-2.924822374855957641e-01,2.073552491281134280e-01
6.243890145092587801e-02,2.448669266044942727e-01,4.672169565370320327e-02
-1.949929317517998251e-01,-4.039962030626260969e-02,1.272734908057267522e-01
-1.554834999964923303e-01,2.024072960308127278e-01,1.411442407147365796e-01
8.466124435851427044e-02,1.620341463667911500e-02,2.532488049234722927e-01
4.289541109660384433e-02,-2.425204885733289392e-02,2.077430167615746115e-01
-3.206631915443019371e-02,-6.727447493851801798e-04,2.453899756842247148e-01
-8.930269342797066134e-03,-6.824869811652793661e-02,3.959219293676627949e-01
1.926630647697950005e-01,-6.992081603196766137e-02,-2.115254399532073143e-02
-1.059461047960852387e-01,-9.193751960411030225e-03,1.093641028233040546e-01
2.772666250831433768e-02,-9.591065375886917432e-02,1.366730813031204195e-01
-2.380326610451075076e-01,2.251089739471219264e-01,3.589831844993894294e-01
-1.038479479089464419e-01,-1.467520430450155733e-01,-1.024937041341496824e-01
7.808582541531494670e-02,-6.148925214323087973e-02,2.268399228140885460e-03
-3.041401681638665200e-01,-1.711873858587411451e-02,3.579894396672121393e-01
1.275540348099072907e-01,5.543902685222446003e-02,-9.243589004507422879e-02
2.577322259455578912e-01,-1.710653617162903595e-01,-8.459261974280207763e-02
1.124980099906978948e-01,-5.664619299930469948e-02,7.229785552626244449e-02
-7.514666535353507759e-02,3.902397631296047192e-02,1.025786269776775422e-01
2.990588405986465900e-02,-9.203819117389125393e-02,2.681789219934072044e-01
-8.984920899738360611e-02,1.424102356612061970e-01,-7.194301048007059607e-02
-1.736767601232556690e-01,1.746415355929808455e-01,1.496431072149511932e-01
6.585197019493288159e-03,-1.739521281458901170e-01,2.011014784211209994e-01
2.320368976890872792e-02,1.035938288520364681e-01,2.171347886330355359e-01
6.642603358631797572e-02,-1.140681046777701213e-01,-1.631872771186821530e-02
1.441929168305395581e-01,1.624006039361660103e-01,8.604052600897098280e-02
-1.665577648348162410e-01,-3.945603966969626203e-02,3.527983245775000998e-01
2.277414842429256459e-01,3.300861839337781989e-02,3.795916028902634326e-02
-6.956106589464924883e-03,-1.055547915711646696e-02,2.552485161632914723e-01
-2.739748463380674293e-02,-5.269115775017553516e-02,3.174357630009599363e-01
8.043300124344594793e-02,5.466329643857047865e-02,-1.153260042126433640e-02
-6.311295286589349574e-02,1.054639895553836915e-01,1.087808998186383103e-01
2.122544879105161819e-01,2.003646222530262033e-01,2.865922738618318158e-02
-1.133814618448941020e-01,1.594614007943203071e-01,6.225135309185873128e-02
6.786287934451316894e-02,-1.392035448548739895e-01,2.474562734841657397e-01
1.325988245039880775e-01,-2.129678301325881595e-01,1.789048274833935082e-01
-6.728275423360741136e-03,-2.007986700398355917e-01,6.682491227202635997e-02
-5.830334685854316606e-02,-1.686630882568380674e-01,9.437778650606150344e-02
-1.166814552447087983e-01,1.806190456626388663e-02,-7.270143458995600994e-02
-2.269669747192955972e-02,9.085220838657000197e-02,1.996171643506707838e-01
-1.126143056972777196e-01,9.158106908783615607e-02,8.399167773931254244e-02
-1.116856620527493654e-01,1.278219308557866293e-02,2.284325727598120886e-02
-5.911895988303792621e-02,4.448414508851069454e-02,7.914901003027940973e-02
3.446496755148780594e-02,-1.253044732450791232e-01,-5.046643770664954731e-02
2.344892734708376170e-01,2.297410999951809696e-01,2.313475056677140596e-01
-2.875634107309172488e-02,8.131698345997594862e-03,2.863634787818578609e-01
4.313756447546240880e-02,-1.826476183287573940e-01,3.293558875765165705e-01
-7.949712876370730597e-02,-7.099691225641921455e-02,4.821115905559692633e-02
-8.125358526564914474e-02,3.913106580171268195e-02,8.177570003581602354e-02
4.961180982302882542e-02,1.984039723518665754e-01,-1.421278588834298806e-02
1.192616905917233266e-01,-1.288369712303238934e-01,-1.251576117993392079e-01
-6.209770891529362707e-02,-6.835001306548942057e-02,3.754373109782458418e-01
1.022351311477421310e-01,2.387096036867370208e-01,3.069655247431771761e-01
9.908040983901240939e-02,8.404024201093433788e-02,2.722880269763091610e-01
1.987145451823822129e-01,4.195931796194422858e-02,1.251503728326147091e-01
-6.874509404741789564e-02,-1.084950024089530868e-01,1.020132725340852364e-01
-1.191422726789196918e-01,1.202852487481462880e-03,-2.558656085461199353e-02
-1.322103580716503524e-01,1.352124228828129882e-01,6.203025320964267175e-02
-2.838448426433961003e-01,4.957348378955454826e-02,2.905325778282892846e-01
-1.472014569039060417e-01,1.648420133176691990e-02,3.932552173681216900e-01
1.017588013786518558e-01,1.575738908067975674e-01,-1.093078648645430528e-01
2.445529935893427965e-03,-1.110743797386203602e-01,-1.601551791846320127e-01
1.745511039192471636e-01,-2.558355790132562507e-02,-8.143755594197527037e-03
1.162974522286266549e-01,2.181788561439141835e-02,3.983948195661484587e-02
5.005535897951247232e-02,-2.238071010558993074e-02,2.295085841867943732e-01
1.297255564153915360e-02,-5.097994598482852475e-03,1.006289422349942175e-01
-8.859979359153244069e-03,-9.843365547248607295e-02,1.887875882158047136e-01
-2.724084157216186131e-01,-6.784893692733068304e-02,2.678458642659505839e-01
-7.973456609348232582e-02,-1.319144803965637824e-01,-5.061467350754976502e-02
-8.159689783956505793e-02,9.590583086052863193e-02,2.467501896091914837e-01
1.687600991437037887e-02,-1.212917541219091649e-01,1.151410476817787409e-01
4.820474819184933368e-02,7.696848988761570073e-03,1.611381117269450880e-01
-5.594308508914526065e-03,5.897831095901909931e-02,7.199568350798782324e-02
4.240130888480828780e-03,1.405980392383057997e-01,1.190381402985321996e-01
-5.138573318622340763e-02,1.899558047649565762e-01,3.781186860753460444e-02
4.940678917240826085e-02,-1.578948285351779168e-01,1.292314591098332917e-02
6.046281636648193070e-02,-6.875601769475873926e-02,-1.005135862394913732e-01
-1.396177283136569303e-01,-6.656577371943017685e-02,1.997194084499306632e-01
8.997353359359522296e-02,-1.470632706970786407e-01,8.005778675585389914e-02
-7.673420403372117893e-02,6.988043501303317639e-02,1.736702011644787325e-01
6.970615786237215061e-02,-2.446771912608244892e-02,4.773205181619854381e-02
9.609163259170215576e-02,-5.095629916587266980e-03,2.159090664969581519e-01
1.293440762777376407e-01,1.596580150263122166e-01,1.707739759576679117e-01
-4.542021258026488449e-03,-1.489320091425137271e-01,8.649125416238820363e-02
9.682304433017468320e-03,-1.937210031090069728e-01,1.832493967454667527e-01
-7.530182337738858256e-02,-1.504804244719715536e-02,3.819962881360230988e-02
-6.560083997522356269e-02,-7.058368787294451441e-02,-6.049842459618472862e-02
5.375286208000496641e-02,-4.540446996208871017e-02,1.305223101918482620e-01
-2.626129285978092143e-01,1.140136068802870828e-01,7.324297435928793509e-02
-2.510209903271272761e-02,-8.021928565220504126e-02,8.009396569796382870e-02
2.858117648226403060e-02,2.284932306322152717e-01,1.308975445322780873e-01
1.332831731126769489e-02,4.544260054557243758e-03,3.815174006216653230e-02
1.756510641478917778e-01,3.680331642904170774e-04,1.261521313506852315e-01
1.021269128252862562e-01,-6.682186651837331015e-02,9.678132784132856270e-02
-8.602367654539486153e-02,1.219358961113974488e-01,8.837693222223390321e-02
9.414153682194867367e-02,3.256451612954414793e-02,1.818056250195508039e-01
-4.526989674134655056e-02,-1.437137413358584026e-01,2.641651242289821400e-01
-7.259934402488853189e-02,-8.571937231246367500e-03,-1.287035310127244425e-01
1.749704420306773534e-01,2.681496363077878753e-02,7.425290568956678661e-02
-6.872475055972489255e-02,-3.269281607146459212e-01,3.046139720546582885e-01
1.241902490220449101e-01,-7.214207102458894405e-02,-5.144333341993786307e-02
-8.581249899822090965e-02,1.279832584495829984e-01,8.911544857798082975e-02
4.325690870565822993e-02,-2.454035785419226776e-02,-1.229208904892243187e-01
-9.832382582310492114e-02,1.992691627509329266e-01,1.608088903438614214e-01
-4.665249297967114309e-03,-1.482431211988344821e-01,2.028992467316028392e-01
8.945669114770858632e-02,1.199037946235820273e-02,3.668285437060113396e-02
-1.625153068941974921e-01,-8.101310621310704729e-02,5.172760802740468400e-02
1.707130055680340375e-01,-1.123551726221550945e-01,2.704766420718880959e-01
-1.310141650788848242e-02,-1.289001760852785672e-02,1.733574703738319234e-01
-7.341771660398464794e-02,-7.317032435827139358e-02,2.990627190309734507e-02
2.067001684810349307e-02,1.609177823855915401e-01,-5.612867513975629274e-02
1.809522965584331178e-01,1.084852177123040579e-02,2.801401302329032533e-02
2.139703098392023092e-02,4.278955138373168043e-02,-2.066197112195287400e-01
2.285992769716277684e-01,-3.078167414113482103e-02,7.275106706372548582e-02
-1.370615998876487662e-01,7.364632060071314712e-02,3.046532247833119364e-02
2.661827402935997844e-01,-1.467577760325689262e-01,4.118154504268681793e-01
-9.905347226590427087e-03,1.469505721661453490e-01,7.774977157855259002e-02
1.880014274994817663e-03,-8.751505511951682137e-02,1.839698863678793650e-01
-2.257492118739996279e-01,-1.385368235928037409e-03,1.250497406871451944e-01
7.017647556130185427e-02,-7.980598303668572091e-02,6.490150676465970825e-02
8.863436434959970356e-02,1.062433546714988131e-01,-7.004325909802228828e-03
2.173426971108486164e-02,8.417332946115593795e-02,4.325481095069054482e-02
1.695785471034876590e-01,-2.100146858251887572e-01,7.377114120737765512e-02
-9.659802629235759996e-02,2.197277517536821989e-01,9.056596619622805933e-02
-5.448594278603963170e-02,-9.117259237876125522e-02,3.471795729612147663e-01
1.345435596179511140e-01,-1.367227677450896239e-01,-1.093058311446943459e-01
-1.487427639155200210e-01,-1.070364533541536683e-01,1.548004457871792749e-01
9.650406307013612017e-02,-1.253839009368086232e-01,6.669198991212189898e-02
4.699768896997488440e-03,-3.003226412026843706e-02,2.465888914834901691e-01
-4.280905141432719829e-02,-1.916167799427050122e-01,2.565437576265841568e-01
-2.525959732773063737e-01,1.378338614951551411e-01,-1.015387660699811345e-01
-7.186705007136783008e-02,-1.206548803762417382e-01,1.354957573307704055e-01
7.368173464792841798e-02,-5.383256334268859272e-02,5.285559555609194160e-02
-1.298057436237468887e-01,1.310430893506949190e-01,1.374261904848993743e-01
-9.906810589420486646e-03,-1.414173465589082905e-02,7.017420804383750488e-02
7.347524253654577620e-02,-1.360144815088537018e-01,-8.612383275166547725e-02
-1.509516628721385978e-01,9.678651321131022389e-02,1.412257245466781164e-01
-8.801130733945661949e-03,1.907139570510967552e-01,5.860815436131664759e-03
7.135335756367790216e-02,-1.214726675414031232e-01,2.814965759386729438e-01
6.927898139022102553e-02,-1.627939827984240806e-01,3.610266361395297330e-01
7.479049026406874717e-03,-3.512426644512398055e-02,8.706708901693922809e-02
-1.004072492934412163e-02,-1.232374994306822125e-01,2.925101976932549808e-01
-5.538367108647822279e-02,9.457143538295124940e-02,3.051209103480903573e-01
-1.141726113735735959e-01,2.267807688815413891e-01,4.294866044392157273e-02
1.142291124800445951e-01,-3.851600519123088429e-02,7.464449168234482679e-02
5.654062981389424564e-02,1.976300441763851334e-01,1.580114768671397329e-01
5.418239364479170844e-02,6.329396135814199797e-02,3.475943885622607976e-02
-1.061166610679760425e-01,8.105786254396503410e-02,-8.213287050442460990e-02
-1.244156980967908027e-01,-8.203078465365234995e-02,-1.932810195855655944e-01
-2.415895676668128045e-01,1.723118809495086112e-01,-6.425510331892028693e-02
1.341348912174417096e-01,-1.004961580365215101e-01,1.198768876184564541e-01
-1.384515756969961243e-02,-2.503728641979413843e-03,8.537180831559169902e-02
-3.830252955856404407e-02,-2.943479053476464810e-02,1.490218595352749142e-01
8.552917336926943101e-03,-1.134853584423467648e-01,3.139567997530116894e-02
2.168688851616716873e-01,-2.338209779882786388e-01,9.025750509488279782e-02
-6.135389162511171394e-04,6.461545488551236754e-03,-1.358750719784274641e-01
-1.307560357207153412e-01,2.348521616348985680e-02,2.655098327336127273e-01
1.300011027210515868e-01,-8.131406577000931113e-02,5.317964414180129107e-02
3.466672176591126253e-02,-1.143534734820724763e-01,1.746323399755112804e-01
-5.237176664842698587e-02,-2.369625026078773788e-01,1.816012380874988119e-01
-5.415641062364460329e-02,-5.468303840083473671e-02,1.482943504768219900e-01
-6.609482715186439095e-02,-6.715282887040444071e-02,-1.474143132061641603e-01
1.125122291064964281e-01,-8.024059100445769810e-02,-3.404820577034931711e-02
-4.431671897114443648e-01,2.756303603793372470e-02,3.138785504652831793e-01
2.086651798305212691e-01,-9.737490689818496803e-02,2.035684121026942184e-01
2.985894946826400664e-01,5.551356143865435883e-02,4.436388036499133020e-02
1.754923872511210126e-01,-1.842386983946329992e-01,1.364767194423537611e-01
1.977416972644496784e-01,-9.012148461464827842e-02,-1.441299608000013235e-02
6.704744264167675216e-02,-3.671113205733251283e-01,1.580310748795932529e-01
-2.421037746702060789e-01,-1.215403884110309030e-01,-6.338497579075437482e-02
1.075164618540396660e-01,-7.982120245858989604e-02,1.457710552235158552e-01
-2.582900817667562188e-01,-3.036702528017173539e-02,-5.272913270009686737e-02
-4.446142144271169466e-02,3.686499880690086162e-02,1.073700123618054336e-01
3.287149327769963575e-02,-1.943454223908261669e-01,-2.327579714910810449e-01
-1.613395932326772420e-01,-1.854457829934743340e-01,-4.123711681264347062e-02
-1.840093625175546754e-01,1.345066759801961387e-01,2.617848285440331213e-01
-1.516282558151633153e-01,1.207451483831406130e-01,2.091658930072510525e-01
7.525543331194113617e-02,3.444377332346593157e-01,9.295722360096275727e-02
1.088350335616463382e-01,2.425672602695597840e-02,7.446722991447068951e-02
1.270193809256743578e-01,-8.385775158901499771e-02,1.007631049017837649e-01
7.770909175939196001e-02,-3.766860229575209190e-02,1.540831069119772967e-01
-1.121681644810273298e-01,-9.184766605251909466e-02,-5.808511691285656031e-02
-7.644666048836454286e-02,-1.654795037574713912e-01,8.901398838210902720e-02
-1.741427539691492166e-01,-3.078012162990468800e-02,-8.222154563451584963e-02
4.697363661647124128e-02,2.304886675540783122e-02,7.414017118953887542e-02
6.805528855852956138e-02,-3.337619106950299314e-02,1.408513537582428699e-01
-4.893391209973058445e-03,5.347985166586029238e-02,-4.903864467372832936e-02
1.369833200300788201e-01,1.894181746124193322e-01,2.556512756077992665e-01
6.645505535057792679e-02,-1.077720737925820377e-01,-7.385423460784436289e-02
2.796648846019252066e-02,1.843989166190752038e-01,1.353929126377889092e-01
1.504564622675558759e-02,2.373224957709747611e-03,2.854203150712265186e-02
9.466568737455406668e-02,-8.886986438959783297e-02,-1.102436415558937562e-03
-5.723477694481092504e-02,-8.586021229459946114e-02,1.101534079059861837e-01
-1.476198348024662654e-01,1.999073807669069225e-01,-1.496416816504653191e-02
3.638623186080276045e-02,6.394241553553849100e-02,-6.364618650484502038e-02
-4.391807624748887001e-02,1.281942272881360090e-01,3.591108778109244198e-02
-8.003924857748626054e-02,1.772139161366454718e-01,-2.059183487669066781e-02
1.409719810568565435e-01,7.322201072050421589e-02,2.388168732193549429e-02
2.592108564253889358e-01,1.035187357645294265e-01,8.754119670318333268e-02
-3.136003326711888084e-01,1.169297423386818913e-01,-2.309079046925124612e-01
1.452595610361081258e-01,4.328731561664593552e-02,-6.838497291438366821e-02
1.495850250185702668e-02,-5.272807690393348928e-02,3.683314471172201982e-02
4.183670229372723343e-02,1.028622796578541193e-01,9.501608353515431094e-02
-1.272715550753235336e-01,2.154767078658737650e-02,2.308944771502508542e-01
1.554033760777680517e-01,1.476410897110130294e-01,9.095828411105716382e-02
-6.597565860504933655e-02,-8.026426450759335807e-02,2.051068789627112920e-01
3.031850813611274356e-02,-6.145106072542388248e-02,1.488481790503431712e-01
1.419251487149850444e-01,-1.652541571403327641e-03,1.740820351648494080e-01
2.645063314068353266e-01,-1.922324913763367657e-02,-6.435488760804904118e-02
1.181596159418595027e-01,2.033321717877279444e-01,1.301182455533833604e-01
1.565151398737921543e-02,2.064909416249686158e-01,5.641180737568209785e-02
-2.078761624745788239e-01,7.143001029368989396e-02,-2.230958478229568831e-01
4.616468730711480173e-02,-1.178065892798475442e-02,-1.492259431174262430e-03
2.913315005643313943e-02,-1.409122609165298634e-01,2.050013350746121912e-02
-1.063193453792293935e-01,1.232766011973030901e-01,-8.209263970311367342e-02
-2.306662662060144087e-01,1.384932899399849981e-01,-1.144885359062127461e-01
-2.415263883845756299e-01,2.258263788533003136e-01,1.994370916958182749e-01
-1.015349147157489917e-01,2.884951450259393493e-02,-1.719151155111030560e-01
-2.280249761548703291e-01,1.223295307164776607e-01,3.606540639613541877e-01
-4.942072328720389235e-02,1.963121013916112045e-01,1.623319212382786647e-01
9.238547240998001842e-02,-2.438310572509039265e-01,3.518816600879471485e-02
-1.136919906377054645e-01,-1.493121039263106686e-01,9.814483280339339477e-02
9.306914030543539385e-02,-2.622587549292686865e-02,5.203174123916725485e-02
3.679637666629999998e-02,-1.198865140513005051e-01,1.143618167039077982e-01
1.168933343113137541e-01,3.948220189890262743e-02,1.316657891545052750e-01
-9.577663543823426717e-02,2.581073615693645074e-02,-2.062004310542188412e-01
-1.816602327770108077e-02,-2.862456234586260861e-01,8.398045952388688562e-02
2.527852750236295187e-01,1.180316078400156163e-02,-1.728160779146351300e-01
1.266866920355680382e-01,4.664690664502942757e-02,4.899099102157725150e-02
-7.826269977955487012e-02,1.046162518330794322e-01,1.014380415023632964e-01
1.590289224796207282e-02,8.029718657858256337e-02,-4.591779128298847240e-02
-1.508133824120086730e-01,1.640886841592733014e-01,2.374802870753054893e-02
-1.110386533811612841e-01,-9.874531470491675067e-02,7.277453112344856034e-02
1.206878536965556858e-01,-6.136993912676300122e-02,6.740918572552676014e-02
1.430564956914093244e-01,1.685692834446930466e-01,9.112422320106826346e-02
2.279239923722450184e-02,-1.327321314147710263e-01,-2.510616198539441721e-02
-2.975452865293962135e-02,-2.319058147756836996e-01,6.958014032221854217e-02
-9.545188466626290669e-02,-1.229360802905493655e-01,6.559810420422090838e-02
-3.544773801502718036e-01,5.067057444605803374e-03,5.788970859859755153e-02
-1.356755627338044647e-02,-9.458515446716897479e-02,2.192868044485726253e-01
-2.858670010113730994e-02,1.022764423382856586e-01,6.656864440303891794e-02
2.210340695638931263e-01,1.109146820481601292e-01,1.730885450349409771e-01
3.090464159322233173e-01,-7.654781868874220574e-02,-4.460581816573042091e-02
6.017019560622559327e-02,3.455647064206324726e-01,-1.486022486999460102e-01
-1.540601566708265646e-01,-5.170952372181634310e-02,8.005542715360552952e-02
2.040410459500246465e-01,2.432417798180900037e-01,-2.058337905506539903e-02
9.607518232103032328e-04,-3.238207432568707134e-02,2.490905899917673638e-01
-2.094442987769775666e-01,-7.279165754935892907e-02,1.524960827669618602e-01
6.306628500590294450e-02,-2.299118774325437653e-01,3.106623856750966809e-03
-3.854007249201459734e-02,-5.254005210863638142e-02,-2.643092282602302681e-02
-9.476726392395333487e-02,-1.355627063178559688e-01,2.150368315771275796e-01
9.447910656791570772e-02,3.484624695738462036e-02,2.311519678527123312e-01
4.925980953113923838e-02,5.738365040411146090e-02,5.435570226343901939e-02
4.719974501648407234e-02,1.179405019140436772e-01,1.600838814095866675e-02
-7.254719786098162704e-02,-8.522242933125001585e-02,6.680840782754406126e-02
-1.580955466603085335e-01,3.718456968785264355e-02,2.229024747513372040e-01
9.776693388406634821e-02,-7.881708529246785055e-02,-9.250956719214345481e-03
-1.764365611121823940e-01,1.120905937753056275e-01,8.018223412887269183e-03
-1.086160071968767481e-02,-2.815263454027301382e-01,7.825098739059818675e-02
-7.128172884124057973e-02,-1.198453368106768696e-01,-1.023374687426487940e-02
5.407548963832841532e-02,-2.434718754274360075e-01,-4.382253611897342360e-02
-1.533497914881767898e-01,1.845130384295375348e-01,2.426053573066736802e-01
-9.792601491363536748e-02,-9.634532304017960624e-02,1.817328673639515349e-02
1.300077735124507416e-01,2.668447684586046087e-01,2.525984392343247342e-01
-1.324823257880950768e-02,1.684470032743697054e-01,-2.282221005959635639e-03
-2.758654920400544497e-01,1.128360804867531014e-01,1.165176364416860011e-01
-3.031634711292360285e-01,6.444156447163472412e-02,-5.173040157983224696e-02
9.257918102393229709e-02,-7.870645888100649690e-02,1.938569163849484800e-01
-4.719640693704996864e-02,6.730263545874309861e-02,1.298033516727635506e-01
-1.273233723659504546e-01,-1.744123137026911685e-01,9.862116301193292467e-02
-1.681503926029594975e-01,9.868380260722499353e-02,-1.544789838685187242e-03
-1.248058089836141388e-01,5.318197302723962072e-02,8.780435084243845556e-02
-1.461884893587103371e-02,4.951547944089002701e-02,1.021158336140566142e-01
-9.282286544335678624e-02,-1.601398418577293092e-01,7.494385565271426131e-02
1.719317159830255903e-01,1.355768177174793976e-01,-4.110588912817946666e-02
-2.426665309565228384e-02,-1.742876181595891805e-01,7.500026043399914133e-02
5.563122731218004408e-02,-3.455207354735377601e-02,7.729932297897762136e-03
-9.565057029057522087e-02,1.844908806103284782e-01,-9.707451457811697160e-02
-3.290236295101228725e-02,1.413855919543212103e-01,-6.429942726024875932e-02
-9.180724175204953152e-02,-3.747571917213848858e-02,7.892811355511741844e-02
-1.103531871229217615e-01,-6.897772794442234845e-02,1.756412569436727744e-01
-1.225501050537750134e-03,-1.495760621767063259e-01,5.648072391963390726e-02
-1.457164666272339204e-01,1.393840038538018133e-01,1.155232868372223776e-01
1.463105112142508608e-02,1.808155557137657576e-01,-1.982763989925720449e-01
7.135693342736261491e-02,-1.230242294911093257e-02,-4.172067950042046558e-02
1.771238428984602264e-01,4.335759860456834917e-03,8.138419997868624745e-02
-1.240999938125188495e-01,2.661208658472852817e-01,1.255854620776886976e-01
-3.084866221914628684e-02,-6.494558382764543947e-02,9.707069726684347533e-02
-1.776320127564492146e-01,-3.047045373956863701e-02,8.596325597320368661e-02
-2.852661994623359107e-02,7.438269305765417283e-02,6.828779812378346636e-02
2.078659590086182757e-02,-1.494489769138534208e-01,9.526138016192559413e-03
-1.699886386713497510e-01,-1.433689023902968152e-01,2.963115191293764772e-01
4.842692576871738402e-02,-1.291706359317440211e-01,2.710876154896328660e-02
-8.403223945006605550e-03,1.217026171867057333e-01,-3.206652107354095865e-02
-4.830085279764035483e-02,-5.963766585237412904e-02,-3.464823792510962792e-03
-1.526449500439552159e-02,1.270533334288981853e-01,1.958408899903189559e-01
-8.366106599872097371e-02,-2.794605682652397394e-01,-7.153420777409813525e-02
1.356341118210498964e-01,1.052442070264775625e-01,7.541928209414101858e-02
7.079520255378295157e-02,3.778831354942957695e-03,2.088758556170871028e-01
5.626626230884391316e-02,2.219971485236810205e-03,-6.609074817543328373e-02
-1.329254194660371979e-01,2.411705423389685354e-01,-1.711489256791220714e-01
-1.168892388307830044e-01,-1.149988732883431286e-01,2.046689267965405290e-01
3.927235896582818159e-02,-1.851134156778982270e-02,-1.227771389824809101e-01
2.562646507717945832e-02,-3.295664766551280322e-02,1.550914228477464907e-01
4.984566631121035811e-03,6.725456107743948975e-02,1.698148104634238931e-01
-4.019675404980702776e-02,-1.190796647040584383e-01,1.171857882800412948e-01
-1.911533698716098573e-01,9.270333852483637893e-02,1.413612475828840698e-01
8.198308715637073196e-02,-1.073826572660023237e-01,-4.275834026457506903e-02
-6.015057728781079971e-02,-8.359447156893838951e-03,2.673905218423813183e-03
-1.726807291924788851e-02,-1.089958182221496680e-01,2.346099830105921880e-01
-1.972999602722019449e-02,1.189124180830351818e-01,-5.337500372599898041e-02
1.537150128243218727e-01,-9.157616237081170341e-02,1.526699786818069005e-01
-1.898393347779371299e-01,-1.205103645872395574e-01,5.971350831840015194e-02
-6.675502892599309568e-02,-1.185311722857484706e-01,9.198471658594663258e-02
-5.212965646127649955e-02,7.257135293142827348e-02,1.541568804757003641e-01
7.848279764068009923e-02,1.516316433383942397e-01,9.148858109790333759e-02
7.005246447255855657e-02,1.302072882640410989e-01,4.117338281244552894e-02
1.007698348725131476e-01,-3.871000706680246400e-02,7.060007528267542298e-02
1.788673684590071922e-01,-3.304061286942094888e-02,-2.487116249426969683e-02
2.197172911965055431e-01,6.973223601278007167e-02,3.052042661811569246e-01
4.075170297314543305e-02,-5.808717080931884158e-03,1.561979732995260051e-01
1.856088648193056356e-02,-1.798192758969742455e-02,-7.723580941568297144e-03
-2.410210113733614323e-01,-3.279545076329676290e-02,9.312108958982763529e-02
-2.450438920832053724e-01,-5.924530532994868454e-02,8.135160195439683495e-02
-5.305838153484107589e-02,-2.282631995166919947e-01,1.047154012803693801e-01
1.909142542188980995e-01,8.993727600513352904e-02,-6.282760387395516788e-02
1.255360058473153073e-01,2.633426235196416054e-01,-1.046113241926509806e-02
-1.261422326798893219e-02,8.974035636518742226e-03,-4.752627863047109019e-02
1.027034169941158821e-02,-2.399758530353905406e-01,3.575592055196469971e-02
-5.572190903333643780e-02,1.908996261618646148e-02,-1.160088089719872734e-01
7.836257495585417787e-02,6.406263477839911624e-02,-2.197419634184612780e-01
2.055896945829207290e-01,-7.743834170939575823e-02,4.401035889094068870e-02
-9.084265250396250657e-02,-7.454167795969916972e-03,7.215536533001429276e-02
-1.819202337027338856e-01,2.713594317464231367e-02,-1.661152787273915965e-01
-1.786949604313805007e-01,-1.822800080879936613e-01,-7.896560636604114947e-02
-1.674241639209015087e-01,-5.233944955196986881e-02,-1.083333386996632730e-01
-2.106383029708154206e-02,-9.064012362927337252e-02,6.957172310614941069e-02
1.842859031708318079e-02,5.462605314760622666e-02,-4.088155706724833777e-02
-2.183228359400635199e-02,1.964073883139504095e-01,3.328976747268638792e-01
-2.119778661947264442e-01,4.323992190799355595e-02,2.713217066821724810e-01
-1.052788326553679848e-01,1.309114023615205180e-01,2.263602277715532629e-01
2.590051018034042474e-01,1.907175559135749002e-02,-1.475532130223193225e-02
-6.897644772943561930e-02,1.344905093758248515e-01,-4.388887249180907849e-03
-1.212783083198638867e-01,-2.926886242258256443e-01,1.082049444668509858e-01
-1.573854462742347443e-02,-4.165212039163043722e-02,-6.604567595742884267e-02
-1.394324959996603164e-01,1.780543286516486634e-02,-3.337840038933254094e-02
-2.515726716493879023e-01,-2.319881647351725862e-01,4.987049971553431799e-02
-1.134415147845182215e-01,-2.635310771461497198e-02,-4.613656154820819366e-02
2.143999469657751622e-01,7.175380595809029149e-02,-3.105453250825571665e-01
-2.918132194391142020e-01,1.216972371224508409e-01,-6.485329211682652750e-02
6.894182043678487304e-02,6.345461213385279742e-02,1.074993829935801670e-01
-8.835445679811695929e-02,1.560433195115854821e-01,4.320506379210162229e-02
-2.199297129298257228e-02,-1.597434090837264731e-01,-1.342446393512379543e-01
-1.147539337618144403e-02,-2.112570012970715616e-01,-9.324946938735961116e-03
1.089742149253292713e-01,-7.631127883830643444e-02,-6.790726957875417580e-02
-3.480274373993737669e-05,1.151831469814948439e-01,2.555477439234820070e-01
-9.321991520489963934e-02,1.699689013016895955e-01,-1.234025754084723397e-01
-1.348464895491383320e-01,1.742033864050666070e-01,-2.998789569465490010e-02
-4.862368620421124443e-02,2.305737254306538392e-02,2.149405805210990658e-02
-1.048571730275791036e-01,1.136979926183935563e-01,2.009804493175509632e-01
1.254867153272605784e-01,-2.289626159868108080e-01,-6.072261237520202096e-03
-2.295340772703584054e-01,2.755925865483436436e-03,6.169522180679757467e-02
-1.312407399703595379e-01,-5.889748455412961714e-02,-2.920723602785981962e-02
6.713494267762809553e-02,-5.763382296924549064e-02,3.719694492224114718e-02
1.286347256160439989e-01,6.519330922213406598e-02,9.506528787053275531e-02
5.475697803870988034e-02,1.241903492254918806e-01,1.662875690972916431e-01
-8.700462975824783951e-02,-2.216572913227867966e-02,4.683554703403910308e-02
1.595180678903442562e-01,-8.808528593620833951e-05,-6.998806412836722224e-02
-8.555813869859578424e-02,-2.209806741674306962e-01,1.048916197848395182e-01
-4.962917290712742791e-02,-1.163311369352902080e-01,-8.017575706442535421e-02
6.891044420585837327e-02,-2.575943662265051115e-01,9.801095934962111844e-02
-1.429002709158193607e-01,-6.004089109373380445e-02,-7.147776287061860523e-02
-2.196846908767186857e-01,1.501508035883466693e-02,2.666495993392846153e-01
-5.698162516542946976e-02,-2.752219525540915424e-01,6.827024700720814299e-02
-1.898292301955960826e-01,-6.758307741541322300e-02,1.743678797271560610e-01
2.353089074731978814e-01,-3.272240185573527249e-02,2.539993173679143124e-01
2.155578431523560989e-01,-1.360350365223520208e-01,-9.797081362868062526e-02
-1.409587151061045818e-01,3.031541544598668203e-01,-1.571222353318561804e-01
-6.904369608475530162e-02,1.298612633176668696e-01,1.074392799086819894e-01
-8.441812164041249955e-02,5.180039860933246393e-02,1.049759863686095529e-01
1.301045994938601902e-01,5.516433690775628118e-02,5.557119946891746209e-02
1.016498906864338192e-01,4.574896627699772539e-02,1.934529231775941605e-02
1.233983935452315911e-01,2.788009980411672584e-01,-7.106424351692517197e-03
-2.530985660617531951e-03,-4.636847117692325521e-02,-2.021073303897167467e-02
-1.353065936551272053e-01,-6.056961621557799269e-02,1.172184906680823480e-01
-1.059365556087911997e-01,-2.035567745033862175e-01,7.551589893542676180e-02
-4.337322945417638326e-02,4.755715674607118720e-02,-1.268464990164199224e-01
-2.199480241969941630e-01,-3.693211252443855813e-03,-8.026595167234258643e-03
-6.731829702469533869e-03,8.213384025316847192e-02,5.450582899972353235e-02
9.715796549311025987e-02,7.045986482782212734e-02,4.868938247343601589e-02
9.516111598884643974e-02,1.383892459458026247e-01,7.683325358630652135e-02
-1.924678155961858372e-01,-8.735552074377876675e-02,1.268345515453403738e-01
-2.341163166176859350e-02,-1.215227131530335902e-02,-1.778946082029863318e-01
2.091881597169785723e-01,-9.128671258683944412e-02,6.045789676262783990e-02
5.315659672125283564e-02,-8.406337070675726220e-02,5.207520975528151519e-02
-5.502922586052676375e-03,2.011041646758922607e-01,9.963547849215394214e-02
7.628052367025509040e-02,1.659133931788254745e-01,2.644575506879836557e-01
-1.950278723376388731e-02,1.234120210306854093e-01,-1.558438126271528001e-01
3.695592028314825805e-01,2.935187840479628815e-02,5.397093317875033269e-02
2.984874734570159074e-02,3.034875894126233889e-02,-3.596939082122802001e-02
1.027785021726088932e-01,-2.080311192325433323e-01,1.225763117389939635e-02
-2.680395754824603238e-01,1.521754846797055138e-01,5.341787780620162879e-02
-1.509173703246889098e-01,1.730331419988934138e-01,-7.363271093635941067e-02
3.152955988508161500e-01,1.358603979279745522e-01,7.092378825153900813e-03
7.180099145460128174e-02,1.317449498613719183e-01,5.123784303355211067e-02
-7.781818414521295135e-02,9.652618903641516090e-02,-9.041531269426038991e-03
-8.061081551944303952e-03,-9.162132820047211301e-02,-7.045895053188191981e-02
-8.691221957871338513e-03,-5.847611057217334124e-02,1.132016986478133896e-01
6.595455904443302264e-02,-2.019900884383356299e-02,1.417288578137066990e-01
-2.704321462147732044e-02,-2.098146769953689872e-01,1.940120255763582435e-01
