ref_accel_x (m/s^2),ref_accel_y (m/s^2),ref_accel_z (m/s^2)
1.000000000000000000e+00,0.000000000000000000e+00,-9.794841972265039942e+00
1.000000000000000000e+00,9.922715355640981971e-05,-9.794841972187459334e+00
1.000000000000000000e+00,2.984543071078868360e-04,-9.794841971831766969e+00
1.000000000000000000e+00,5.976814606440953226e-04,-9.794841971012447246e+00
1.000000000000000000e+00,9.969086141488269718e-04,-9.794841969543972127e+00
1.000000000000000000e+00,1.496135767600000922e-03,-9.794841967240820679e+00
1.000000000000000000e+00,2.095362920969663732e-03,-9.794841963917475525e+00
1.000000000000000000e+00,2.794590074223987641e-03,-9.794841959388406849e+00
1.000000000000000000e+00,3.593817227323274372e-03,-9.794841953468104379e+00
1.000000000000000000e+00,4.493044380221953606e-03,-9.794841945971041852e+00
1.000000000000000000e+00,5.492271532868578214e-03,-9.794841936711707220e+00
1.000000000000000000e+00,6.591498685205835970e-03,-9.794841925504581326e+00
1.000000000000000000e+00,7.790725837170532631e-03,-9.794841912164150344e+00
1.000000000000000000e+00,9.089952988693616662e-03,-9.794841896504912881e+00
1.000000000000000000e+00,1.048918013970014627e-02,-9.794841878341358665e+00
1.000000000000000000e+00,1.198840729010932499e-02,-9.794841857487993408e+00
1.000000000000000000e+00,1.358763443983447561e-02,-9.794841833759333483e+00
1.000000000000000000e+00,1.528686158878305237e-02,-9.794841806969895259e+00
1.000000000000000000e+00,1.708608873685663748e-02,-9.794841776934218203e+00
1.000000000000000000e+00,1.898531588395096018e-02,-9.794841743466845330e+00
1.000000000000000000e+00,2.098454302995585163e-02,-9.794841706382342750e+00
1.000000000000000000e+00,2.308377017475531437e-02,-9.794841665495299665e+00
1.000000000000000000e+00,2.528299731822744589e-02,-9.794841620620315936e+00
1.000000000000000000e+00,2.758222446024451505e-02,-9.794841571572035832e+00
1.000000000000000000e+00,2.998145160067289955e-02,-9.794841518165121386e+00
1.000000000000000000e+00,3.248067873937313110e-02,-9.794841460214268380e+00
1.000000000000000000e+00,3.507990587619991274e-02,-9.794841397534224114e+00
1.000000000000000000e+00,3.777913301100203208e-02,-9.794841329939766084e+00
1.000000000000000000e+00,4.057836014362247584e-02,-9.794841257245733956e+00
1.000000000000000000e+00,4.347758727389834654e-02,-9.794841179267017139e+00
1.000000000000000000e+00,4.647681440166091804e-02,-9.794841095818563659e+00
1.000000000000000000e+00,4.957604152673563552e-02,-9.794841006715401477e+00
1.000000000000000000e+00,5.277526864894208081e-02,-9.794840911772620728e+00
1.000000000000000000e+00,5.607449576809405561e-02,-9.794840810805412801e+00
1.000000000000000000e+00,5.947372288399945667e-02,-9.794840703629043688e+00
1.000000000000000000e+00,6.297294999646042835e-02,-9.794840590058891294e+00
1.000000000000000000e+00,6.657217710527325860e-02,-9.794840469910443659e+00
1.000000000000000000e+00,7.027140421022848304e-02,-9.794840342999302507e+00
1.000000000000000000e+00,7.407063131111078780e-02,-9.794840209141204568e+00
1.000000000000000000e+00,7.796985840769907194e-02,-9.794840068152035784e+00
1.000000000000000000e+00,8.196908549976650304e-02,-9.794839919847822429e+00
1.000000000000000000e+00,8.606831258708043386e-02,-9.794839764044763086e+00
1.000000000000000000e+00,9.026753966940244400e-02,-9.794839600559235748e+00
1.000000000000000000e+00,9.456676674648845093e-02,-9.794839429207806702e+00
1.000000000000000000e+00,9.896599381808854345e-02,-9.794839249807253623e+00
1.000000000000000000e+00,1.034652208839471066e-01,-9.794839062174576227e+00
1.000000000000000000e+00,1.080644479438029187e-01,-9.794838866127006938e+00
1.000000000000000000e+00,1.127636749973889019e-01,-9.794838661482030417e+00
1.000000000000000000e+00,1.175629020444324130e-01,-9.794838448057411995e+00
1.000000000000000000e+00,1.224621290846551469e-01,-9.794838225671188781e+00
1.000000000000000000e+00,1.274613561177731225e-01,-9.794837994141722959e+00
1.000000000000000000e+00,1.325605831434967796e-01,-9.794837753287685800e+00
1.000000000000000000e+00,1.377598101615309101e-01,-9.794837502928112727e+00
1.000000000000000000e+00,1.430590371715747544e-01,-9.794837242882389106e+00
1.000000000000000000e+00,1.484582641733220854e-01,-9.794836972970303535e+00
1.000000000000000000e+00,1.539574911664610135e-01,-9.794836693012047846e+00
1.000000000000000000e+00,1.595567181506741816e-01,-9.794836402828254407e+00
1.000000000000000000e+00,1.652559451256388201e-01,-9.794836102240010334e+00
1.000000000000000000e+00,1.710551720910267470e-01,-9.794835791068885911e+00
1.000000000000000000e+00,1.769543990465042849e-01,-9.794835469136973671e+00
1.000000000000000000e+00,1.829536259917323993e-01,-9.794835136266893727e+00
1.000000000000000000e+00,1.890528529263666713e-01,-9.794834792281832847e+00
1.000000000000000000e+00,1.952520798500574917e-01,-9.794834437005581762e+00
1.000000000000000000e+00,2.015513067624498944e-01,-9.794834070262536940e+00
1.000000000000000000e+00,2.079505336631837509e-01,-9.794833691877771642e+00
1.000000000000000000e+00,2.144497605518936867e-01,-9.794833301677035919e+00
1.000000000000000000e+00,2.210489874282092482e-01,-9.794832899486797473e+00
1.000000000000000000e+00,2.277482142917548191e-01,-9.794832485134286060e+00
1.000000000000000000e+00,2.345474411421496763e-01,-9.794832058447513035e+00
1.000000000000000000e+00,2.414466679790084058e-01,-9.794831619255315758e+00
1.000000000000000000e+00,2.484458948019403757e-01,-9.794831167387394899e+00
1.000000000000000000e+00,2.555451216105500412e-01,-9.794830702674351741e+00
1.000000000000000000e+00,2.627443484044372779e-01,-9.794830224947718378e+00
1.000000000000000000e+00,2.700435751831969933e-01,-9.794829734040019886e+00
1.000000000000000000e+00,2.774428019464193484e-01,-9.794829229784783209e+00
1.000000000000000000e+00,2.849420286936900637e-01,-9.794828712016608208e+00
1.000000000000000000e+00,2.925412554245902519e-01,-9.794828180571208520e+00
1.000000000000000000e+00,3.002404821386962519e-01,-9.794827635285425771e+00
1.000000000000000000e+00,3.080397088355802948e-01,-9.794827075997316612e+00
1.000000000000000000e+00,3.159389355148102818e-01,-9.794826502546168712e+00
1.000000000000000000e+00,3.239381621759495622e-01,-9.794825914772570030e+00
1.000000000000000000e+00,3.320373888185573774e-01,-9.794825312518442573e+00
1.000000000000000000e+00,3.402366154421892497e-01,-9.794824695627099231e+00
1.000000000000000000e+00,3.485358420463960938e-01,-9.794824063943297077e+00
1.000000000000000000e+00,3.569350686307252163e-01,-9.794823417313288871e+00
1.000000000000000000e+00,3.654342951947202045e-01,-9.794822755584872809e+00
1.000000000000000000e+00,3.740335217379207600e-01,-9.794822078607452909e+00
1.000000000000000000e+00,3.827327482598629760e-01,-9.794821386232088756e+00
1.000000000000000000e+00,3.915319747600793931e-01,-9.794820678311568329e+00
1.000000000000000000e+00,4.004312012380992214e-01,-9.794819954700454190e+00
1.000000000000000000e+00,4.094304276934484510e-01,-9.794819215255134992e+00
1.000000000000000000e+00,4.185296541256495750e-01,-9.794818459833914304e+00
1.000000000000000000e+00,4.277288805342224776e-01,-9.794817688297044356e+00
1.000000000000000000e+00,4.370281069186837675e-01,-9.794816900506807755e+00
1.000000000000000000e+00,4.464273332785473336e-01,-9.794816096327584987e+00
1.000000000000000000e+00,4.559265596133244558e-01,-9.794815275625897044e+00
1.000000000000000000e+00,4.655257859225239714e-01,-9.794814438270506685e+00
1.000000000000000000e+00,4.752250122056519976e-01,-9.794813584132462836e+00
1.000000000000000000e+00,4.850242384622127090e-01,-9.794812713085175204e+00
1.000000000000000000e+00,4.949234646917081148e-01,-9.794811825004501316e+00
1.000000000000000000e+00,5.049226908936380598e-01,-9.794810919768798030e+00
1.000000000000000000e+00,5.150219170675010005e-01,-9.794809997259006806e+00
1.000000000000000000e+00,5.252211432127935620e-01,-9.794809057358728310e+00
1.000000000000000000e+00,5.355203693290109257e-01,-9.794808099954305902e+00
1.000000000000000000e+00,5.459195954156468300e-01,-9.794807124934884257e+00
1.000000000000000000e+00,5.564188214721941250e-01,-9.794806132192512393e+00
1.000000000000000000e+00,5.670180474981446617e-01,-9.794805121622207622e+00
1.000000000000000000e+00,5.777172734929895137e-01,-9.794804093122044364e+00
1.000000000000000000e+00,5.885164994562195329e-01,-9.794803046593234086e+00
1.000000000000000000e+00,5.994157253873246827e-01,-9.794801981940215896e+00
1.000000000000000000e+00,6.104149512857951487e-01,-9.794800899070740030e+00
1.000000000000000000e+00,6.215141771511211166e-01,-9.794799797895946014e+00
1.000000000000000000e+00,6.327134029827932160e-01,-9.794798678330458586e+00
1.000000000000000000e+00,6.440126287803017435e-01,-9.794797540292492499e+00
1.000000000000000000e+00,6.554118545431393272e-01,-9.794796383703905818e+00
1.000000000000000000e+00,6.661806190615040535e-01,-9.794795208490331362e+00
1.000000000000000000e+00,6.761943295828803935e-01,-9.794794015440585255e+00
1.000000000000000000e+00,6.855140337677871898e-01,-9.794792805493747423e+00
1.000000000000000000e+00,6.941956437711290784e-01,-9.794791579520788716e+00
1.000000000000000000e+00,7.022903640250716117e-01,-9.794790338330065183e+00
1.000000000000000000e+00,7.098450840964247721e-01,-9.794789082672410885e+00
1.000000000000000000e+00,7.169027393909260804e-01,-9.794787813245791952e+00
1.000000000000000000e+00,7.235026422655214118e-01,-9.794786530699617799e+00
1.000000000000000000e+00,7.296807859135786556e-01,-9.794785235638668652e+00
1.000000000000000000e+00,7.354701232059077665e-01,-9.794783928626731750e+00
1.000000000000000000e+00,7.409008225016602278e-01,-9.794782610189932015e+00
1.000000000000000000e+00,7.460005022866973423e-01,-9.794781280819792713e+00
1.000000000000000000e+00,7.507944463521002421e-01,-9.794779940976034993e+00
1.000000000000000000e+00,7.553058010913095144e-01,-9.794778591089169595e+00
1.000000000000000000e+00,7.595557563702404202e-01,-9.794777231562843411e+00
1.000000000000000000e+00,7.635637113098839857e-01,-9.794775862776024411e+00
1.000000000000000000e+00,7.673474262147728098e-01,-9.794774485084978721e+00
1.000000000000000000e+00,7.709231617826077798e-01,-9.794773098825100277e+00
1.000000000000000000e+00,7.743058066397593420e-01,-9.794771704312582372e+00
1.000000000000000000e+00,7.775089941637334245e-01,-9.794770301845938221e+00
1.000000000000000000e+00,7.805452094765173987e-01,-9.794768891707416714e+00
1.000000000000000000e+00,7.834258874215265234e-01,-9.794767474164272514e+00
1.000000000000000000e+00,7.861615022712260537e-01,-9.794766049469959768e+00
1.000000000000000000e+00,7.887616498519858244e-01,-9.794764617865194367e+00
1.000000000000000000e+00,7.912351227169579504e-01,-9.794763179578941603e+00
1.000000000000000000e+00,7.935899789463962684e-01,-9.794761734829322108e+00
1.000000000000000000e+00,7.958336051075330930e-01,-9.794760283824448521e+00
1.000000000000000000e+00,7.979727738625654876e-01,-9.794758826763155568e+00
1.000000000000000000e+00,8.000136966732328547e-01,-9.794757363835708830e+00
1.000000000000000000e+00,8.019620720135762770e-01,-9.794755895224440678e+00
1.000000000000000000e+00,8.038231294685543871e-01,-9.794754421104309827e+00
1.000000000000000000e+00,8.056016700649922813e-01,-9.794752941643462663e+00
1.000000000000000000e+00,8.073021031526583791e-01,-9.794751457003675554e+00
1.000000000000000000e+00,8.089284801269138736e-01,-9.794749967340834473e+00
1.000000000000000000e+00,8.104845252601460270e-01,-9.794748472805331119e+00
1.000000000000000000e+00,8.119736638869586853e-01,-9.794746973542409307e+00
1.000000000000000000e+00,8.133990481676471873e-01,-9.794745469692541562e+00
1.000000000000000000e+00,8.147635806357229615e-01,-9.794743961391716880e+00
1.000000000000000000e+00,8.160699357180268843e-01,-9.794742448771724952e+00
1.000000000000000000e+00,8.173205794001537905e-01,-9.794740931960426167e+00
1.000000000000000000e+00,8.185177871953994710e-01,-9.794739411081982539e+00
1.000000000000000000e+00,8.196636605621361316e-01,-9.794737886257081527e+00
1.000000000000000000e+00,8.207601419022960698e-01,-9.794736357603122556e+00
1.000000000000000000e+00,8.218090282624509468e-01,-9.794734825234417741e+00
1.000000000000000000e+00,8.228119838487063520e-01,-9.794733289262346432e+00
1.000000000000000000e+00,8.237705514572014609e-01,-9.794731749795520415e+00
1.000000000000000000e+00,8.246861629133890315e-01,-9.794730206939902928e+00
1.000000000000000000e+00,8.255601486053451010e-01,-9.794728660798968534e+00
1.000000000000000000e+00,8.263937461891169844e-01,-9.794727111473795489e+00
1.000000000000000000e+00,8.271881085374781506e-01,-9.794725559063197196e+00
1.000000000000000000e+00,8.279443109973626536e-01,-9.794724003663800360e+00
1.000000000000000000e+00,8.286633580156976819e-01,-9.794722445370151576e+00
1.000000000000000000e+00,8.293461891882286663e-01,-9.794720884274809691e+00
1.000000000000000000e+00,8.299936847812783292e-01,-9.794719320468391999e+00
1.000000000000000000e+00,8.306066707720871634e-01,-9.794717754039693247e+00
1.000000000000000000e+00,8.311859234494785031e-01,-9.794716185075708736e+00
1.000000000000000000e+00,8.317321736129971166e-01,-9.794714613661723135e+00
1.000000000000000000e+00,8.322461104054000858e-01,-9.794713039881363770e+00
1.000000000000000000e+00,8.327283848103682606e-01,-9.794711463816639707e+00
1.000000000000000000e+00,8.331796128445679850e-01,-9.794709885548005701e+00
1.000000000000000000e+00,8.336003784706739195e-01,-9.794708305154408379e+00
1.000000000000000000e+00,8.339912362556719527e-01,-9.794706722713314662e+00
1.000000000000000000e+00,8.343527137966569862e-01,-9.794705138300765057e+00
1.000000000000000000e+00,8.346853139344174721e-01,-9.794703551991409185e+00
1.000000000000000000e+00,8.349895167733438761e-01,-9.794701963858530647e+00
1.000000000000000000e+00,8.352657815245906336e-01,-9.794700373974094987e+00
1.000000000000000000e+00,8.355145481879509006e-01,-9.794698782408765680e+00
1.000000000000000000e+00,8.357362390865642476e-01,-9.794697189231939660e+00
1.000000000000000000e+00,8.359312602673470982e-01,-9.794695594511779291e+00
1.000000000000000000e+00,8.361000027789171618e-01,-9.794693998315221251e+00
1.000000000000000000e+00,8.362428438377556006e-01,-9.794692400708029822e+00
1.000000000000000000e+00,8.363601478924169719e-01,-9.794690801754788012e+00
1.000000000000000000e+00,8.364522675947397845e-01,-9.794689201518934851e+00
1.000000000000000000e+00,8.365195446862307982e-01,-9.794687600062793820e+00
1.000000000000000000e+00,8.365623108070814329e-01,-9.794685997447578174e+00
1.000000000000000000e+00,8.365808882346204012e-01,-9.794684393733417593e+00
1.000000000000000000e+00,8.365755905574167040e-01,-9.794682788979370613e+00
1.000000000000000000e+00,8.365467232906990125e-01,-9.794681183243453049e+00
1.000000000000000000e+00,8.364945844382615237e-01,-9.794679576582646874e+00
1.000000000000000000e+00,8.364194650055734037e-01,-9.794677969052912658e+00
1.000000000000000000e+00,8.363216494683995972e-01,-9.794676360709216212e+00
1.000000000000000000e+00,8.362014162008516438e-01,-9.794674751605537466e+00
1.000000000000000000e+00,8.360590378664546352e-01,-9.794673141794884685e+00
1.000000000000000000e+00,8.358947817754963650e-01,-9.794671531329306902e+00
1.000000000000000000e+00,8.357089102116335155e-01,-9.794669920259917006e+00
1.000000000000000000e+00,8.355016807304750381e-01,-9.794668308636893528e+00
1.000000000000000000e+00,8.352733464326189683e-01,-9.794666696509505499e+00
1.000000000000000000e+00,8.350241562134012030e-01,-9.794665083926117788e+00
1.000000000000000000e+00,8.347543549914143712e-01,-9.794663470934198202e+00
1.000000000000000000e+00,8.344641839176801801e-01,-9.794661857580340580e+00
1.000000000000000000e+00,8.341538805671794288e-01,-9.794660243910284336e+00
1.000000000000000000e+00,8.338236791143076587e-01,-9.794658629968898467e+00
1.000000000000000000e+00,8.334738104936754155e-01,-9.794657015800220634e+00
1.000000000000000000e+00,8.331045025475510846e-01,-9.794655401447450060e+00
1.000000000000000000e+00,8.327159801611290213e-01,-9.794653786952977725e+00
1.000000000000000000e+00,8.323084653866992255e-01,-9.794652172358381037e+00
1.000000000000000000e+00,8.318821775577033284e-01,-9.794650557704430938e+00
1.000000000000000000e+00,8.314373333935688448e-01,-9.794648943031123878e+00
1.000000000000000000e+00,8.309741470961395926e-01,-9.794647328377681816e+00
1.000000000000000000e+00,8.304928304384452398e-01,-9.794645713782550445e+00
1.000000000000000000e+00,8.299935928464853285e-01,-9.794644099283425831e+00
1.000000000000000000e+00,8.294766414746492789e-01,-9.794642484917257974e+00
1.000000000000000000e+00,8.289421812753298147e-01,-9.794640870720266790e+00
1.000000000000000000e+00,8.283904150632469543e-01,-9.794639256727938559e+00
1.000000000000000000e+00,8.278215435749437523e-01,-9.794637642975047243e+00
1.000000000000000000e+00,8.272357655238871121e-01,-9.794636029495668694e+00
1.000000000000000000e+00,8.266332776515503689e-01,-9.794634416323173554e+00
1.000000000000000000e+00,8.260142747748440151e-01,-9.794632803490248563e+00
1.000000000000000000e+00,8.253789498302017691e-01,-9.794631191028901895e+00
1.000000000000000000e+00,8.247274939146266304e-01,-9.794629578970479145e+00
1.000000000000000000e+00,8.240600963239578247e-01,-9.794627967345661546e+00
1.000000000000000000e+00,8.233769445886017779e-01,-9.794626356184483740e+00
1.000000000000000000e+00,8.226782245069517163e-01,-9.794624745516335551e+00
1.000000000000000000e+00,8.219641201766930694e-01,-9.794623135369983302e+00
1.000000000000000000e+00,8.212348140241827466e-01,-9.794621525773559156e+00
1.000000000000000000e+00,8.204904868320652689e-01,-9.794619916754593092e+00
1.000000000000000000e+00,8.197313177652836291e-01,-9.794618308339998691e+00
1.000000000000000000e+00,8.189574843956158867e-01,-9.794616700556098010e+00
1.000000000000000000e+00,8.181691627248710574e-01,-9.794615093428625130e+00
1.000000000000000000e+00,8.173665272068566523e-01,-9.794613486982731487e+00
1.000000000000000000e+00,8.165497507682201173e-01,-9.794611881242992979e+00
1.000000000000000000e+00,8.157190048282647599e-01,-9.794610276233427726e+00
1.000000000000000000e+00,8.148744593178222084e-01,-9.794608671977496073e+00
1.000000000000000000e+00,8.140162826972628940e-01,-9.794607068498109470e+00
1.000000000000000000e+00,8.131446419737174969e-01,-9.794605465817642909e+00
1.000000000000000000e+00,8.122597027175736395e-01,-9.794603863957931367e+00
1.000000000000000000e+00,8.113616290783053353e-01,-9.794602262940292903e+00
1.000000000000000000e+00,8.104505837996959228e-01,-9.794600662785528655e+00
1.000000000000000000e+00,8.095267282344970061e-01,-9.794599063513928172e+00
1.000000000000000000e+00,8.085902223585741400e-01,-9.794597465145278292e+00
1.000000000000000000e+00,8.076412247845768944e-01,-9.794595867698873803e+00
1.000000000000000000e+00,8.066798927751707149e-01,-9.794594271193529877e+00
1.000000000000000000e+00,8.057063822558703237e-01,-9.794592675647564306e+00
1.000000000000000000e+00,8.047208478274948673e-01,-9.794591081078843686e+00
1.000000000000000000e+00,8.037234427782858903e-01,-9.794589487504753222e+00
1.000000000000000000e+00,8.027143190957034546e-01,-9.794587894942235806e+00
1.000000000000000000e+00,8.016936274779300486e-01,-9.794586303407765371e+00
1.000000000000000000e+00,8.006615173451016032e-01,-9.794584712917382419e+00
1.000000000000000000e+00,7.996181368502840447e-01,-9.794583123486694021e+00
1.000000000000000000e+00,7.985636328902171455e-01,-9.794581535130868488e+00
1.000000000000000000e+00,7.974981511158359959e-01,-9.794579947864654912e+00
1.000000000000000000e+00,7.964218359425907501e-01,-9.794578361702383162e+00
1.000000000000000000e+00,7.953348305605746349e-01,-9.794576776657978101e+00
1.000000000000000000e+00,7.942372769444715486e-01,-9.794575192744950698e+00
1.000000000000000000e+00,7.931293158633401230e-01,-9.794573609976419348e+00
1.000000000000000000e+00,7.920110868902381362e-01,-9.794572028365113425e+00
1.000000000000000000e+00,7.908827284116985989e-01,-9.794570447923376832e+00
1.000000000000000000e+00,7.897443776370677293e-01,-9.794568868663168004e+00
1.000000000000000000e+00,7.885961706077129207e-01,-9.794567290596081222e+00
1.000000000000000000e+00,7.874382422061034781e-01,-9.794565713733339507e+00
1.000000000000000000e+00,7.862707261647755574e-01,-9.794564138085807059e+00
1.000000000000000000e+00,7.850937550751833083e-01,-9.794562563663985699e+00
1.000000000000000000e+00,7.839074603964476529e-01,-9.794560990478037965e+00
1.000000000000000000e+00,7.827119724639985954e-01,-9.794559418537780004e+00
1.000000000000000000e+00,7.815074204981227179e-01,-9.794557847852688681e+00
1.000000000000000000e+00,7.802939326124207486e-01,-9.794556278431906904e+00
1.000000000000000000e+00,7.790716358221696503e-01,-9.794554710284252508e+00
1.000000000000000000e+00,7.778406560526072155e-01,-9.794553143418228913e+00
1.000000000000000000e+00,7.766011181471286218e-01,-9.794551577842012691e+00
1.000000000000000000e+00,7.753531458754050476e-01,-9.794550013563481983e+00
1.000000000000000000e+00,7.740968619414274610e-01,-9.794548450590196964e+00
1.000000000000000000e+00,7.728323879914750227e-01,-9.794546888929426487e+00
1.000000000000000000e+00,7.715598446220134354e-01,-9.794545328588146305e+00
1.000000000000000000e+00,7.702793513875191289e-01,-9.794543769573030190e+00
1.000000000000000000e+00,7.689910268082426059e-01,-9.794542211890485461e+00
1.000000000000000000e+00,7.676949883778995121e-01,-9.794540655546626340e+00
1.000000000000000000e+00,7.663913525713023089e-01,-9.794539100547295263e+00
1.000000000000000000e+00,7.650802348519264440e-01,-9.794537546898071767e+00
1.000000000000000000e+00,7.637617496794167904e-01,-9.794535994604258278e+00
1.000000000000000000e+00,7.624360105170333579e-01,-9.794534443670904977e+00
1.000000000000000000e+00,7.611031298390383837e-01,-9.794532894102804477e+00
1.000000000000000000e+00,7.597632191380278011e-01,-9.794531345904497144e+00
1.000000000000000000e+00,7.584163889322032004e-01,-9.794529799080283539e+00
1.000000000000000000e+00,7.570627487725901661e-01,-9.794528253634208426e+00
1.000000000000000000e+00,7.557024072502028789e-01,-9.794526709570089196e+00
1.000000000000000000e+00,7.543354720031537619e-01,-9.794525166891508761e+00
1.000000000000000000e+00,7.529620497237101695e-01,-9.794523625601815553e+00
1.000000000000000000e+00,7.515822461653012265e-01,-9.794522085704141290e+00
1.000000000000000000e+00,7.501961661494697120e-01,-9.794520547201390315e+00
1.000000000000000000e+00,7.488039135727782014e-01,-9.794519010096255585e+00
1.000000000000000000e+00,7.474055914136610301e-01,-9.794517474391204459e+00
1.000000000000000000e+00,7.460013017392274071e-01,-9.794515940088519557e+00
1.000000000000000000e+00,7.445911457120208965e-01,-9.794514407190252570e+00
1.000000000000000000e+00,7.431752235967228337e-01,-9.794512875698274001e+00
1.000000000000000000e+00,7.417536347668139962e-01,-9.794511345614250075e+00
1.000000000000000000e+00,7.403264777111875361e-01,-9.794509816939651614e+00
1.000000000000000000e+00,7.388938500407140619e-01,-9.794508289675768253e+00
1.000000000000000000e+00,7.374558484947628667e-01,-9.794506763823694229e+00
1.000000000000000000e+00,7.360125689476745281e-01,-9.794505239384346140e+00
1.000000000000000000e+00,7.345641064151916533e-01,-9.794503716358466505e+00
1.000000000000000000e+00,7.331105550608411070e-01,-9.794502194746611323e+00
1.000000000000000000e+00,7.316520082022759386e-01,-9.794500674549182051e+00
1.000000000000000000e+00,7.301885583175683481e-01,-9.794499155766398957e+00
1.000000000000000000e+00,7.287202970514641276e-01,-9.794497638398318884e+00
1.000000000000000000e+00,7.272473152215893633e-01,-9.794496122444844133e+00
1.000000000000000000e+00,7.257697028246167248e-01,-9.794494607905713579e+00
1.000000000000000000e+00,7.242875490423889007e-01,-9.794493094780513331e+00
1.000000000000000000e+00,7.228009422479990675e-01,-9.794491583068676732e+00
1.000000000000000000e+00,7.213099700118292823e-01,-9.794490072769493239e+00
1.000000000000000000e+00,7.198147191075482398e-01,-9.794488563882103094e+00
1.000000000000000000e+00,7.183152755180667315e-01,-9.794487056405502656e+00
1.000000000000000000e+00,7.168117244414531353e-01,-9.794485550338555058e+00
1.000000000000000000e+00,7.153041502968070509e-01,-9.794484045679979545e+00
1.000000000000000000e+00,7.137926367300932995e-01,-9.794482542428371019e+00
1.000000000000000000e+00,7.122772666199357339e-01,-9.794481040582187603e+00
1.000000000000000000e+00,7.107581220833710800e-01,-9.794479540139759521e+00
1.000000000000000000e+00,7.092352844815636992e-01,-9.794478041099296206e+00
1.000000000000000000e+00,7.077088344254800489e-01,-9.794476543458882745e+00
1.000000000000000000e+00,7.061788517815255073e-01,-9.794475047216486985e+00
1.000000000000000000e+00,7.046454156771415622e-01,-9.794473552369959535e+00
1.000000000000000000e+00,7.031086045063653645e-01,-9.794472058917033763e+00
1.000000000000000000e+00,7.015684959353496453e-01,-9.794470566855334681e+00
1.000000000000000000e+00,7.000251669078467742e-01,-9.794469076182378942e+00
1.000000000000000000e+00,6.984786936506540700e-01,-9.794467586895576616e+00
1.000000000000000000e+00,6.969291516790208085e-01,-9.794466098992236525e+00
1.000000000000000000e+00,6.953766158020203703e-01,-9.794464612469552023e+00
1.000000000000000000e+00,6.938211601278833074e-01,-9.794463127324640084e+00
1.000000000000000000e+00,6.922628580692955502e-01,-9.794461643554505770e+00
1.000000000000000000e+00,6.907017823486580888e-01,-9.794460161156059996e+00
1.000000000000000000e+00,6.891380050033136806e-01,-9.794458680126128414e+00
1.000000000000000000e+00,6.875715973907340350e-01,-9.794457200461444302e+00
1.000000000000000000e+00,6.860026301936742454e-01,-9.794455722158650346e+00
1.000000000000000000e+00,6.844311734252895851e-01,-9.794454245214307520e+00
1.000000000000000000e+00,6.828572964342198848e-01,-9.794452769624895083e+00
1.000000000000000000e+00,6.812810679096351629e-01,-9.794451295386805256e+00
1.000000000000000000e+00,6.797025558862506145e-01,-9.794449822496352098e+00
1.000000000000000000e+00,6.781218277493036295e-01,-9.794448350949782167e+00
1.000000000000000000e+00,6.765389502394982824e-01,-9.794446880743253203e+00
1.000000000000000000e+00,6.749539894579164034e-01,-9.794445411872860774e+00
1.000000000000000000e+00,6.733670108708932345e-01,-9.794443944334622287e+00
1.000000000000000000e+00,6.717780793148602214e-01,-9.794442478124492979e+00
1.000000000000000000e+00,6.701872590011542785e-01,-9.794441013238357030e+00
1.000000000000000000e+00,6.685946135207946339e-01,-9.794439549672025791e+00
1.000000000000000000e+00,6.670002058492257024e-01,-9.794438087421262651e+00
1.000000000000000000e+00,6.654040983510274287e-01,-9.794436626481761721e+00
1.000000000000000000e+00,6.638063527845942113e-01,-9.794435166849151386e+00
1.000000000000000000e+00,6.622070303067799646e-01,-9.794433708519008519e+00
1.000000000000000000e+00,6.606061914775116506e-01,-9.794432251486853147e+00
1.000000000000000000e+00,6.590038962643719467e-01,-9.794430795748148455e+00
1.000000000000000000e+00,6.574002040471487174e-01,-9.794429341298304337e+00
1.000000000000000000e+00,6.557951736223541772e-01,-9.794427888132680948e+00
1.000000000000000000e+00,6.541888632077115240e-01,-9.794426436246585155e+00
1.000000000000000000e+00,6.525813304466124842e-01,-9.794424985635282965e+00
1.000000000000000000e+00,6.509726324125419961e-01,-9.794423536293981769e+00
1.000000000000000000e+00,6.493628256134735821e-01,-9.794422088217853428e+00
1.000000000000000000e+00,6.477519659962336362e-01,-9.794420641402018290e+00
1.000000000000000000e+00,6.461401089508355122e-01,-9.794419195841566506e+00
1.000000000000000000e+00,6.445273093147837473e-01,-9.794417751531529603e+00
1.000000000000000000e+00,6.429136213773493091e-01,-9.794416308466917798e+00
1.000000000000000000e+00,6.412990988838125350e-01,-9.794414866642688011e+00
1.000000000000000000e+00,6.396837950396800920e-01,-9.794413426053766969e+00
1.000000000000000000e+00,6.380677625148696297e-01,-9.794411986695044092e+00
1.000000000000000000e+00,6.364510534478672321e-01,-9.794410548561383933e+00
1.000000000000000000e+00,6.348337194498555602e-01,-9.794409111647604860e+00
1.000000000000000000e+00,6.332158116088129063e-01,-9.794407675948496816e+00
1.000000000000000000e+00,6.315973804935838265e-01,-9.794406241458826656e+00
1.000000000000000000e+00,6.299784761579220183e-01,-9.794404808173323929e+00
1.000000000000000000e+00,6.283591481445042204e-01,-9.794403376086695090e+00
1.000000000000000000e+00,6.267394454889169131e-01,-9.794401945193616399e+00
1.000000000000000000e+00,6.251194167236144850e-01,-9.794400515488739245e+00
1.000000000000000000e+00,6.234991098818509769e-01,-9.794399086966690149e+00
1.000000000000000000e+00,6.218785725015830712e-01,-9.794397659622083196e+00
1.000000000000000000e+00,6.202578516293466571e-01,-9.794396233449491618e+00
1.000000000000000000e+00,6.186369938241059740e-01,-9.794394808443476208e+00
1.000000000000000000e+00,6.170160451610764429e-01,-9.794393384598581775e+00
1.000000000000000000e+00,6.153950512355202962e-01,-9.794391961909326483e+00
1.000000000000000000e+00,6.137740571665155631e-01,-9.794390540370217835e+00
1.000000000000000000e+00,6.121531076006990757e-01,-9.794389119975742020e+00
1.000000000000000000e+00,6.105322467159837174e-01,-9.794387700720365686e+00
1.000000000000000000e+00,6.089115182252483605e-01,-9.794386282598548377e+00
1.000000000000000000e+00,6.072909653800027119e-01,-9.794384865604728319e+00
1.000000000000000000e+00,6.056706309740274019e-01,-9.794383449733336633e+00
1.000000000000000000e+00,6.040505573469872047e-01,-9.794382034978784901e+00
1.000000000000000000e+00,6.024307863880190572e-01,-9.794380621335481152e+00
1.000000000000000000e+00,6.008113595392959860e-01,-9.794379208797815650e+00
1.000000000000000000e+00,5.991923177995647221e-01,-9.794377797360176885e+00
1.000000000000000000e+00,5.975737017276596674e-01,-9.794376387016935581e+00
1.000000000000000000e+00,5.959555514459914383e-01,-9.794374977762458911e+00
1.000000000000000000e+00,5.943379066440106495e-01,-9.794373569591106943e+00
1.000000000000000000e+00,5.927208065816487181e-01,-9.794372162497234413e+00
1.000000000000000000e+00,5.911042900927327981e-01,-9.794370756475185402e+00
1.000000000000000000e+00,5.894883955883780668e-01,-9.794369351519303990e+00
1.000000000000000000e+00,5.878731610603544766e-01,-9.794367947623927151e+00
1.000000000000000000e+00,5.862586240844326335e-01,-9.794366544783391859e+00
1.000000000000000000e+00,5.846448218237022543e-01,-9.794365142992027984e+00
3.907985046680551022e-12,5.830317910318713048e-01,-9.794363742244163618e+00
0.000000000000000000e+00,5.799696477132583183e-01,-9.794363544966680379e+00
0.000000000000000000e+00,5.769235785237682990e-01,-9.794363349729033885e+00
0.000000000000000000e+00,5.738934990853596929e-01,-9.794363156510405233e+00
0.000000000000000000e+00,5.708793254629117575e-01,-9.794362965290190459e+00
0.000000000000000000e+00,5.678809741619047502e-01,-9.794362776047984553e+00
0.000000000000000000e+00,5.648983621261077781e-01,-9.794362588763579680e+00
0.000000000000000000e+00,5.619314067352780828e-01,-9.794362403416986496e+00
0.000000000000000000e+00,5.589800258028712054e-01,-9.794362219988396845e+00
0.000000000000000000e+00,5.560441375737663616e-01,-9.794362038458206854e+00
0.000000000000000000e+00,5.531236607219994772e-01,-9.794361858807006271e+00
0.000000000000000000e+00,5.502185143485129881e-01,-9.794361681015582022e+00
0.000000000000000000e+00,5.473286179789120798e-01,-9.794361505064907547e+00
0.000000000000000000e+00,5.444538915612379126e-01,-9.794361330936153465e+00
0.000000000000000000e+00,5.415942554637485085e-01,-9.794361158610666251e+00
0.000000000000000000e+00,5.387496304727140695e-01,-9.794360988069991336e+00
0.000000000000000000e+00,5.359199377902216233e-01,-9.794360819295853560e+00
0.000000000000000000e+00,5.331050990319928795e-01,-9.794360652270155398e+00
0.000000000000000000e+00,5.303050362252132999e-01,-9.794360486974994728e+00
0.000000000000000000e+00,5.275196718063713819e-01,-9.794360323392632850e+00
0.000000000000000000e+00,5.247489286191100444e-01,-9.794360161505514029e+00
0.000000000000000000e+00,5.219927299120908915e-01,-9.794360001296261942e+00
0.000000000000000000e+00,5.192509993368660259e-01,-9.794359842747674350e+00
0.000000000000000000e+00,5.165236609457642958e-01,-9.794359685842712437e+00
0.000000000000000000e+00,5.138106391897877545e-01,-9.794359530564522132e+00
0.000000000000000000e+00,5.111118589165178916e-01,-9.794359376896411007e+00
0.000000000000000000e+00,5.084272453680352966e-01,-9.794359224821850063e+00
0.000000000000000000e+00,5.057567241788472057e-01,-9.794359074324482606e+00
0.000000000000000000e+00,5.031002213738287043e-01,-9.794358925388120696e+00
0.000000000000000000e+00,5.004576633661727003e-01,-9.794358777996727383e+00
0.000000000000000000e+00,4.978289769553526090e-01,-9.794358632134438025e+00
0.000000000000000000e+00,4.952140893250934761e-01,-9.794358487785537193e+00
0.000000000000000000e+00,4.926129280413559242e-01,-9.794358344934478211e+00
0.000000000000000000e+00,4.900254210503288133e-01,-9.794358203565860066e+00
0.000000000000000000e+00,4.874514966764338930e-01,-9.794358063664454050e+00
0.000000000000000000e+00,4.848910836203402241e-01,-9.794357925215164684e+00
0.000000000000000000e+00,4.823441109569889806e-01,-9.794357788203061688e+00
0.000000000000000000e+00,4.798105081336287436e-01,-9.794357652613360443e+00
0.000000000000000000e+00,4.772902049678617309e-01,-9.794357518431432652e+00
0.000000000000000000e+00,4.747831316456987416e-01,-9.794357385642783242e+00
0.000000000000000000e+00,4.722892187196258140e-01,-9.794357254233080567e+00
0.000000000000000000e+00,4.698083971066806530e-01,-9.794357124188124430e+00
0.000000000000000000e+00,4.673405980865387721e-01,-9.794356995493869178e+00
0.000000000000000000e+00,4.648857532996096831e-01,-9.794356868136398830e+00
0.000000000000000000e+00,4.624437947451435216e-01,-9.794356742101948399e+00
0.000000000000000000e+00,4.600146547793474983e-01,-9.794356617376891450e+00
0.000000000000000000e+00,4.575982661135118423e-01,-9.794356493947734776e+00
0.000000000000000000e+00,4.551945618121459036e-01,-9.794356371801120176e+00
0.000000000000000000e+00,4.528034752911244687e-01,-9.794356250923840435e+00
0.000000000000000000e+00,4.504249403158424037e-01,-9.794356131302800250e+00
0.000000000000000000e+00,4.480588909993809543e-01,-9.794356012925049981e+00
0.000000000000000000e+00,4.457052618006818734e-01,-9.794355895777771437e+00
0.000000000000000000e+00,4.433639875227319838e-01,-9.794355779848267218e+00
0.000000000000000000e+00,4.410350033107578449e-01,-9.794355665123987364e+00
0.000000000000000000e+00,4.387182446504282463e-01,-9.794355551592483167e+00
0.000000000000000000e+00,4.364136473660680249e-01,-9.794355439241456907e+00
0.000000000000000000e+00,4.341211476188795992e-01,-9.794355328058726329e+00
0.000000000000000000e+00,4.318406819051749390e-01,-9.794355218032226418e+00
0.000000000000000000e+00,4.295721870546168053e-01,-9.794355109150021832e+00
0.000000000000000000e+00,4.273156002284682065e-01,-9.794355001400303351e+00
0.000000000000000000e+00,4.250708589178522345e-01,-9.794354894771368336e+00
0.000000000000000000e+00,4.228379009420202284e-01,-9.794354789251645599e+00
0.000000000000000000e+00,4.206166644466297622e-01,-9.794354684829679414e+00
0.000000000000000000e+00,4.184070879020304057e-01,-9.794354581494122414e+00
0.000000000000000000e+00,4.162091101015603645e-01,-9.794354479233755129e+00
0.000000000000000000e+00,4.140226701598502812e-01,-9.794354378037461117e+00
0.000000000000000000e+00,4.118477075111366958e-01,-9.794354277894246508e+00
0.000000000000000000e+00,4.096841619075849428e-01,-9.794354178793220456e+00
0.000000000000000000e+00,4.075319734176193753e-01,-9.794354080723616462e+00
0.000000000000000000e+00,4.053910824242640820e-01,-9.794353983674763953e+00
0.000000000000000000e+00,4.032614296234906526e-01,-9.794353887636109590e+00
0.000000000000000000e+00,4.011429560225760471e-01,-9.794353792597199515e+00
0.000000000000000000e+00,3.990356029384681813e-01,-9.794353698547697107e+00
0.000000000000000000e+00,3.969393119961602268e-01,-9.794353605477365221e+00
0.000000000000000000e+00,3.948540251270741264e-01,-9.794353513376073295e+00
0.000000000000000000e+00,3.927796845674513260e-01,-9.794353422233793793e+00
0.000000000000000000e+00,3.907162328567532761e-01,-9.794353332040598659e+00
0.000000000000000000e+00,3.886636128360694276e-01,-9.794353242786668190e+00
0.000000000000000000e+00,3.866217676465338871e-01,-9.794353154462275057e+00
0.000000000000000000e+00,3.845906407277507877e-01,-9.794353067057798512e+00
0.000000000000000000e+00,3.825701758162267652e-01,-9.794352980563710176e+00
0.000000000000000000e+00,3.805603169438132038e-01,-9.794352894970582923e+00
0.000000000000000000e+00,3.785610084361554772e-01,-9.794352810269087328e+00
0.000000000000000000e+00,3.765721949111507372e-01,-9.794352726449984559e+00
0.000000000000000000e+00,3.745938212774140852e-01,-9.794352643504138811e+00
0.000000000000000000e+00,3.726258327327517939e-01,-9.794352561422495995e+00
0.000000000000000000e+00,3.706681747626442980e-01,-9.794352480196108601e+00
0.000000000000000000e+00,3.687207931387351811e-01,-9.794352399816105503e+00
0.000000000000000000e+00,3.667836339173295990e-01,-9.794352320273715051e+00
0.000000000000000000e+00,3.648566434378995305e-01,-9.794352241560261518e+00
0.000000000000000000e+00,3.629397683215977999e-01,-9.794352163667145561e+00
0.000000000000000000e+00,3.610329554697793153e-01,-9.794352086585865536e+00
0.000000000000000000e+00,3.591361520625299120e-01,-9.794352010308003287e+00
0.000000000000000000e+00,3.572493055572035225e-01,-9.794351934825224149e+00
0.000000000000000000e+00,3.553723636869665081e-01,-9.794351860129289378e+00
0.000000000000000000e+00,3.535052744593502050e-01,-9.794351786212031286e+00
0.000000000000000000e+00,3.516479861548102437e-01,-9.794351713065374554e+00
0.000000000000000000e+00,3.498004473252943058e-01,-9.794351640681323801e+00
0.000000000000000000e+00,3.479626067928161537e-01,-9.794351569051967132e+00
0.000000000000000000e+00,3.461344136480392630e-01,-9.794351498169476145e+00
0.000000000000000000e+00,3.443158172488654523e-01,-9.794351428026095263e+00
0.000000000000000000e+00,3.425067672190328372e-01,-9.794351358614161285e+00
0.000000000000000000e+00,3.407072134467197255e-01,-9.794351289926074955e+00
0.000000000000000000e+00,3.389171060831570603e-01,-9.794351221954322284e+00
0.000000000000000000e+00,3.371363955412470803e-01,-9.794351154691474548e+00
0.000000000000000000e+00,3.353650324941903071e-01,-9.794351088130166971e+00
0.000000000000000000e+00,3.336029678741184723e-01,-9.794351022263111162e+00
0.000000000000000000e+00,3.318501528707357706e-01,-9.794350957083102216e+00
0.000000000000000000e+00,3.301065389299668307e-01,-9.794350892583008061e+00
0.000000000000000000e+00,3.283720777526115131e-01,-9.794350828755762350e+00
0.000000000000000000e+00,3.266467212930068142e-01,-9.794350765594375119e+00
0.000000000000000000e+00,3.249304217576963749e-01,-9.794350703091934562e+00
0.000000000000000000e+00,3.232231316041065949e-01,-9.794350641241591049e+00
0.000000000000000000e+00,3.215248035392291315e-01,-9.794350580036571330e+00
0.000000000000000000e+00,3.198353905183115020e-01,-9.794350519470166105e+00
0.000000000000000000e+00,3.181548457435534605e-01,-9.794350459535747788e+00
0.000000000000000000e+00,3.164831226628106453e-01,-9.794350400226736753e+00
0.000000000000000000e+00,3.148201749683056105e-01,-9.794350341536643967e+00
0.000000000000000000e+00,3.131659565953444080e-01,-9.794350283459030138e+00
0.000000000000000000e+00,3.115204217210409965e-01,-9.794350225987528802e+00
0.000000000000000000e+00,3.098835247630477019e-01,-9.794350169115844551e+00
0.000000000000000000e+00,3.082552203782926714e-01,-9.794350112837731714e+00
0.000000000000000000e+00,3.066354634617236563e-01,-9.794350057147026334e+00
0.000000000000000000e+00,3.050242091450587334e-01,-9.794350002037621294e+00
0.000000000000000000e+00,3.034214127955437434e-01,-9.794349947503466325e+00
0.000000000000000000e+00,3.018270300147149476e-01,-9.794349893538580432e+00
0.000000000000000000e+00,3.002410166371705103e-01,-9.794349840137044794e+00
0.000000000000000000e+00,2.986633287293458672e-01,-9.794349787292997433e+00
0.000000000000000000e+00,2.970939225882974766e-01,-9.794349735000640322e+00
0.000000000000000000e+00,2.955327547404918986e-01,-9.794349683254234051e+00
0.000000000000000000e+00,2.939797819406017032e-01,-9.794349632048101384e+00
0.000000000000000000e+00,2.924349611703075391e-01,-9.794349581376616598e+00
0.000000000000000000e+00,2.908982496371063098e-01,-9.794349531234221473e+00
0.000000000000000000e+00,2.893696047731260101e-01,-9.794349481615403974e+00
0.000000000000000000e+00,2.878489842339466143e-01,-9.794349432514723119e+00
0.000000000000000000e+00,2.863363458974268472e-01,-9.794349383926780561e+00
0.000000000000000000e+00,2.848316478625373960e-01,-9.794349335846245452e+00
0.000000000000000000e+00,2.833348484482005603e-01,-9.794349288267831355e+00
0.000000000000000000e+00,2.818459061921352315e-01,-9.794349241186310451e+00
0.000000000000000000e+00,2.803647798497089227e-01,-9.794349194596513541e+00
0.000000000000000000e+00,2.788914283927944049e-01,-9.794349148493322943e+00
0.000000000000000000e+00,2.774258110086341156e-01,-9.794349102871667156e+00
0.000000000000000000e+00,2.759678870987090638e-01,-9.794349057726536856e+00
0.000000000000000000e+00,2.745176162776143958e-01,-9.794349013052968900e+00
0.000000000000000000e+00,2.730749583719406792e-01,-9.794348968846053438e+00
0.000000000000000000e+00,2.716398734191607933e-01,-9.794348925100925030e+00
0.000000000000000000e+00,2.702123216665237582e-01,-9.794348881812783958e+00
0.000000000000000000e+00,2.687922635699524498e-01,-9.794348838976862481e+00
0.000000000000000000e+00,2.673796597929491980e-01,-9.794348796588455031e+00
0.000000000000000000e+00,2.659744712055053806e-01,-9.794348754642898669e+00
0.000000000000000000e+00,2.645766588830181232e-01,-9.794348713135578421e+00
0.000000000000000000e+00,2.631861841052114959e-01,-9.794348672061934380e+00
0.000000000000000000e+00,2.618030083550643150e-01,-9.794348631417442164e+00
0.000000000000000000e+00,2.604270933177430525e-01,-9.794348591197630682e+00
0.000000000000000000e+00,2.590584008795405735e-01,-9.794348551398080360e+00
0.000000000000000000e+00,2.576968931268202034e-01,-9.794348512014407149e+00
0.000000000000000000e+00,2.563425323449657900e-01,-9.794348473042280290e+00
0.000000000000000000e+00,2.549952810173367612e-01,-9.794348434477409882e+00
0.000000000000000000e+00,2.536551018242286237e-01,-9.794348396315552208e+00
0.000000000000000000e+00,2.523219576418399002e-01,-9.794348358552506184e+00
0.000000000000000000e+00,2.509958115412430635e-01,-9.794348321184113360e+00
0.000000000000000000e+00,2.496766267873619383e-01,-9.794348284206261468e+00
0.000000000000000000e+00,2.483643668379541813e-01,-9.794348247614879099e+00
0.000000000000000000e+00,2.470589953425988416e-01,-9.794348211405941029e+00
0.000000000000000000e+00,2.457604761416894990e-01,-9.794348175575457560e+00
0.000000000000000000e+00,2.444687732654326207e-01,-9.794348140119478074e+00
0.000000000000000000e+00,2.431838509328510534e-01,-9.794348105034110574e+00
0.000000000000000000e+00,2.419056735507932598e-01,-9.794348070315480825e+00
0.000000000000000000e+00,2.406342057129468026e-01,-9.794348035959766108e+00
0.000000000000000000e+00,2.393694121988580448e-01,-9.794348001963182782e+00
0.000000000000000000e+00,2.381112579729562639e-01,-9.794347968321986286e+00
0.000000000000000000e+00,2.368597081835832896e-01,-9.794347935032471142e+00
0.000000000000000000e+00,2.356147281620278311e-01,-9.794347902090969171e+00
0.000000000000000000e+00,2.343762834215656066e-01,-9.794347869493851277e+00
0.000000000000000000e+00,2.331443396565034964e-01,-9.794347837237523891e+00
0.000000000000000000e+00,2.319188627412296089e-01,-9.794347805318430744e+00
0.000000000000000000e+00,2.306998187292678693e-01,-9.794347773733061757e+00
0.000000000000000000e+00,2.294871738523376337e-01,-9.794347742477928165e+00
0.000000000000000000e+00,2.282808945194184091e-01,-9.794347711549587387e+00
0.000000000000000000e+00,2.270809473158192648e-01,-9.794347680944630596e+00
0.000000000000000000e+00,2.258872990022532112e-01,-9.794347650659684490e+00
0.000000000000000000e+00,2.246999165139165755e-01,-9.794347620691407741e+00
0.000000000000000000e+00,2.235187669595729010e-01,-9.794347591036501655e+00
0.000000000000000000e+00,2.223438176206419536e-01,-9.794347561691690629e+00
0.000000000000000000e+00,2.211750359502934471e-01,-9.794347532653741695e+00
0.000000000000000000e+00,2.200123895725453749e-01,-9.794347503919453857e+00
0.000000000000000000e+00,2.188558462813671168e-01,-9.794347475485652765e+00
0.000000000000000000e+00,2.177053740397875414e-01,-9.794347447349210256e+00
0.000000000000000000e+00,2.165609409790072437e-01,-9.794347419507019481e+00
0.000000000000000000e+00,2.154225153975161400e-01,-9.794347391956009119e+00
0.000000000000000000e+00,2.142900657602149483e-01,-9.794347364693139824e+00
0.000000000000000000e+00,2.131635606975419150e-01,-9.794347337715405999e+00
0.000000000000000000e+00,2.120429690046036486e-01,-9.794347311019826918e+00
0.000000000000000000e+00,2.109282596403109222e-01,-9.794347284603466264e+00
0.000000000000000000e+00,2.098194017265186673e-01,-9.794347258463400152e+00
0.000000000000000000e+00,2.087163645471707962e-01,-9.794347232596749109e+00
0.000000000000000000e+00,2.076191175474489392e-01,-9.794347207000656752e+00
0.000000000000000000e+00,2.065276303329266483e-01,-9.794347181672300451e+00
0.000000000000000000e+00,2.054418726687269880e-01,-9.794347156608882443e+00
0.000000000000000000e+00,2.043618144786853441e-01,-9.794347131807640494e+00
0.000000000000000000e+00,2.032874258445158677e-01,-9.794347107265837238e+00
0.000000000000000000e+00,2.022186770049832216e-01,-9.794347082980756625e+00
0.000000000000000000e+00,2.011555383550778231e-01,-9.794347058949723461e+00
0.000000000000000000e+00,2.000979804451959443e-01,-9.794347035170089200e+00
0.000000000000000000e+00,1.990459739803236983e-01,-9.794347011639219502e+00
0.000000000000000000e+00,1.979994898192258546e-01,-9.794346988354526218e+00
0.000000000000000000e+00,1.969584989736385683e-01,-9.794346965313428299e+00
0.000000000000000000e+00,1.959229726074660782e-01,-9.794346942513389109e+00
0.000000000000000000e+00,1.948928820359822900e-01,-9.794346919951887998e+00
0.000000000000000000e+00,1.938681987250359395e-01,-9.794346897626434512e+00
0.000000000000000000e+00,1.928488942902603365e-01,-9.794346875534566621e+00
0.000000000000000000e+00,1.918349404962871041e-01,-9.794346853673836506e+00
0.000000000000000000e+00,1.908263092559638330e-01,-9.794346832041838979e+00
0.000000000000000000e+00,1.898229726295763697e-01,-9.794346810636181289e+00
0.000000000000000000e+00,1.888249028240746030e-01,-9.794346789454495550e+00
0.000000000000000000e+00,1.878320721923026348e-01,-9.794346768494447630e+00
0.000000000000000000e+00,1.868444532322330598e-01,-9.794346747753715832e+00
0.000000000000000000e+00,1.858620185862051022e-01,-9.794346727230017535e+00
0.000000000000000000e+00,1.848847410401665003e-01,-9.794346706921075452e+00
0.000000000000000000e+00,1.839125935229201647e-01,-9.794346686824658477e+00
0.000000000000000000e+00,1.829455491053738891e-01,-9.794346666938533730e+00
0.000000000000000000e+00,1.819835809997945864e-01,-9.794346647260510963e+00
0.000000000000000000e+00,1.810266625590662426e-01,-9.794346627788415915e+00
0.000000000000000000e+00,1.800747672759515916e-01,-9.794346608520093866e+00
0.000000000000000000e+00,1.791278687823582016e-01,-9.794346589453416740e+00
0.000000000000000000e+00,1.781859408486076157e-01,-9.794346570586279555e+00
0.000000000000000000e+00,1.772489573827091269e-01,-9.794346551916595089e+00
0.000000000000000000e+00,1.763168924296370232e-01,-9.794346533442302771e+00
0.000000000000000000e+00,1.753897201706113018e-01,-9.794346515161358013e+00
0.000000000000000000e+00,1.744674149223827131e-01,-9.794346497071737545e+00
0.000000000000000000e+00,1.735499511365212189e-01,-9.794346479171450071e+00
0.000000000000000000e+00,1.726373033987084193e-01,-9.794346461458511399e+00
0.000000000000000000e+00,1.717294464280334221e-01,-9.794346443930963986e+00
0.000000000000000000e+00,1.708263550762925964e-01,-9.794346426586869825e+00
0.000000000000000000e+00,1.699280043272928808e-01,-9.794346409424312228e+00
0.000000000000000000e+00,1.690343692961590871e-01,-9.794346392441399374e+00
0.000000000000000000e+00,1.681454252286442019e-01,-9.794346375636242996e+00
0.000000000000000000e+00,1.672611475004437964e-01,-9.794346359006990355e+00
0.000000000000000000e+00,1.663815116165141550e-01,-9.794346342551804696e+00
0.000000000000000000e+00,1.655064932103934017e-01,-9.794346326268867031e+00
0.000000000000000000e+00,1.646360680435268453e-01,-9.794346310156372581e+00
0.000000000000000000e+00,1.637702120045951837e-01,-9.794346294212541437e+00
0.000000000000000000e+00,1.629089011088470651e-01,-9.794346278435611453e+00
0.000000000000000000e+00,1.620521114974343146e-01,-9.794346262823838245e+00
0.000000000000000000e+00,1.611998194367511850e-01,-9.794346247375493419e+00
0.000000000000000000e+00,1.603520013177769932e-01,-9.794346232088866344e+00
0.000000000000000000e+00,1.595086336554218942e-01,-9.794346216962271257e+00
0.000000000000000000e+00,1.586696930878767064e-01,-9.794346201994034828e+00
0.000000000000000000e+00,1.578351563759652632e-01,-9.794346187182497943e+00
0.000000000000000000e+00,1.570050004025012325e-01,-9.794346172526024574e+00
0.000000000000000000e+00,1.561792021716473244e-01,-9.794346158022994686e+00
0.000000000000000000e+00,1.553577388082785227e-01,-9.794346143671800675e+00
0.000000000000000000e+00,1.545405875573481469e-01,-9.794346129470852702e+00
0.000000000000000000e+00,1.537277257832581623e-01,-9.794346115418589349e+00
0.000000000000000000e+00,1.529191309692314316e-01,-9.794346101513447422e+00
0.000000000000000000e+00,1.521147807166882415e-01,-9.794346087753892149e+00
0.000000000000000000e+00,1.513146527446261047e-01,-9.794346074138401192e+00
0.000000000000000000e+00,1.505187248890022256e-01,-9.794346060665466425e+00
0.000000000000000000e+00,1.497269751021195194e-01,-9.794346047333595706e+00
0.000000000000000000e+00,1.489393814520163228e-01,-9.794346034141318214e+00
0.000000000000000000e+00,1.481559221218584355e-01,-9.794346021087173781e+00
0.000000000000000000e+00,1.473765754093349090e-01,-9.794346008169712903e+00
0.000000000000000000e+00,1.466013197260568057e-01,-9.794345995387509163e+00
0.000000000000000000e+00,1.458301335969593160e-01,-9.794345982739150358e+00
0.000000000000000000e+00,1.450629956597069004e-01,-9.794345970223231390e+00
0.000000000000000000e+00,1.442998846641014021e-01,-9.794345957838373806e+00
0.000000000000000000e+00,1.435407794714934071e-01,-9.794345945583202706e+00
0.000000000000000000e+00,1.427856590541969062e-01,-9.794345933456360953e+00
0.000000000000000000e+00,1.420345024949065393e-01,-9.794345921456509174e+00
0.000000000000000000e+00,1.412872889861183368e-01,-9.794345909582316878e+00
0.000000000000000000e+00,1.405439978295534020e-01,-9.794345897832467784e+00
0.000000000000000000e+00,1.398046084355842322e-01,-9.794345886205665153e+00
0.000000000000000000e+00,1.390691003226647571e-01,-9.794345874700621124e+00
0.000000000000000000e+00,1.383374531167627097e-01,-9.794345863316065603e+00
0.000000000000000000e+00,1.376096465507954114e-01,-9.794345852050728496e+00
0.000000000000000000e+00,1.368856604640684427e-01,-9.794345840903373457e+00
0.000000000000000000e+00,1.361654748017169236e-01,-9.794345829872757037e+00
0.000000000000000000e+00,1.354490696141500139e-01,-9.794345818957664207e+00
0.000000000000000000e+00,1.347364250564986043e-01,-9.794345808156885269e+00
0.000000000000000000e+00,1.340275213880652294e-01,-9.794345797469224735e+00
0.000000000000000000e+00,1.333223389717774210e-01,-9.794345786893494221e+00
0.000000000000000000e+00,1.326208582736438657e-01,-9.794345776428530215e+00
0.000000000000000000e+00,1.319230598622128936e-01,-9.794345766073169202e+00
0.000000000000000000e+00,1.312289244080346862e-01,-9.794345755826268984e+00
0.000000000000000000e+00,1.305384326831256769e-01,-9.794345745686687366e+00
0.000000000000000000e+00,1.298515655604356167e-01,-9.794345735653308793e+00
0.000000000000000000e+00,1.291683040133182470e-01,-9.794345725725017715e+00
0.000000000000000000e+00,1.284886291150039161e-01,-9.794345715900718119e+00
0.000000000000000000e+00,1.278125220380754989e-01,-9.794345706179319322e+00
0.000000000000000000e+00,1.271399640539465081e-01,-9.794345696559743075e+00
0.000000000000000000e+00,1.264709365323427592e-01,-9.794345687040927118e+00
0.000000000000000000e+00,1.258054209407860335e-01,-9.794345677621819846e+00
0.000000000000000000e+00,1.251433988440807388e-01,-9.794345668301369656e+00
0.000000000000000000e+00,1.244848519038033730e-01,-9.794345659078553368e+00
0.000000000000000000e+00,1.238297618777942505e-01,-9.794345649952340693e+00
0.000000000000000000e+00,1.231781106196525172e-01,-9.794345640921727991e+00
0.000000000000000000e+00,1.225298800782333719e-01,-9.794345631985711620e+00
0.000000000000000000e+00,1.218850522971478695e-01,-9.794345623143300372e+00
0.000000000000000000e+00,1.212436094142656795e-01,-9.794345614393519028e+00
0.000000000000000000e+00,1.206055336612204265e-01,-9.794345605735395921e+00
0.000000000000000000e+00,1.199708073629171118e-01,-9.794345597167970041e+00
0.000000000000000000e+00,1.193394129370429213e-01,-9.794345588690292814e+00
0.000000000000000000e+00,1.187113328935798656e-01,-9.794345580301429877e+00
0.000000000000000000e+00,1.180865498343204312e-01,-9.794345572000446865e+00
0.000000000000000000e+00,1.174650464523856741e-01,-9.794345563786425402e+00
0.000000000000000000e+00,1.168468055317457982e-01,-9.794345555658454217e+00
0.000000000000000000e+00,1.162318099467431198e-01,-9.794345547615634473e+00
0.000000000000000000e+00,1.156200426616177668e-01,-9.794345539657070887e+00
0.000000000000000000e+00,1.150114867300359722e-01,-9.794345531781889491e+00
0.000000000000000000e+00,1.144061252946202145e-01,-9.794345523989214541e+00
0.000000000000000000e+00,1.138039415864827153e-01,-9.794345516278177399e+00
0.000000000000000000e+00,1.132049189247606447e-01,-9.794345508647928966e+00
0.000000000000000000e+00,1.126090407161541712e-01,-9.794345501097621920e+00
0.000000000000000000e+00,1.120162904544667326e-01,-9.794345493626419596e+00
0.000000000000000000e+00,1.114266517201478457e-01,-9.794345486233497766e+00
0.000000000000000000e+00,1.108401081798383037e-01,-9.794345478918030423e+00
0.000000000000000000e+00,1.102566435859176769e-01,-9.794345471679209325e+00
0.000000000000000000e+00,1.096762417760543257e-01,-9.794345464516233335e+00
0.000000000000000000e+00,1.090988866727575779e-01,-9.794345457428310198e+00
0.000000000000000000e+00,1.085245622829325018e-01,-9.794345450414649434e+00
0.000000000000000000e+00,1.079532526974368023e-01,-9.794345443474476554e+00
0.000000000000000000e+00,1.073849420906401037e-01,-9.794345436607025945e+00
0.000000000000000000e+00,1.068196147199856616e-01,-9.794345429811530224e+00
0.000000000000000000e+00,1.062572549255541982e-01,-9.794345423087239766e+00
0.000000000000000000e+00,1.056978471296301930e-01,-9.794345416433406726e+00
0.000000000000000000e+00,1.051413758362703121e-01,-9.794345409849295692e+00
0.000000000000000000e+00,1.045878256308741122e-01,-9.794345403334176581e+00
0.000000000000000000e+00,1.040371811797572155e-01,-9.794345396887326416e+00
0.000000000000000000e+00,1.034894272297264273e-01,-9.794345390508031102e+00
0.000000000000000000e+00,1.029445486076570881e-01,-9.794345384195581872e+00
0.000000000000000000e+00,1.024025302200731458e-01,-9.794345377949282394e+00
0.000000000000000000e+00,1.018633570527286564e-01,-9.794345371768436337e+00
0.000000000000000000e+00,1.013270141701921312e-01,-9.794345365652361579e+00
0.000000000000000000e+00,1.007934867154327285e-01,-9.794345359600377776e+00
0.000000000000000000e+00,1.002627599094086802e-01,-9.794345353611811689e+00
0.000000000000000000e+00,9.973481905065793851e-02,-9.794345347686007841e+00
0.000000000000000000e+00,9.920964951489104344e-02,-9.794345341822303652e+00
0.000000000000000000e+00,9.868723675458575262e-02,-9.794345336020045423e+00
0.000000000000000000e+00,9.816756629858428007e-02,-9.794345330278593664e+00
0.000000000000000000e+00,9.765062375169238085e-02,-9.794345324597312441e+00
0.000000000000000000e+00,9.713639479428069767e-02,-9.794345318975572923e+00
0.000000000000000000e+00,9.662486518188778684e-02,-9.794345313412748055e+00
0.000000000000000000e+00,9.611602074482596125e-02,-9.794345307908221443e+00
0.000000000000000000e+00,9.560984738778836867e-02,-9.794345302461387348e+00
0.000000000000000000e+00,9.510633108945883152e-02,-9.794345297071634704e+00
0.000000000000000000e+00,9.460545790212339379e-02,-9.794345291738370207e+00
0.000000000000000000e+00,9.410721395128386624e-02,-9.794345286461005884e+00
0.000000000000000000e+00,9.361158543527359210e-02,-9.794345281238946654e+00
0.000000000000000000e+00,9.311855862487503077e-02,-9.794345276071620532e+00
0.000000000000000000e+00,9.262811986293952027e-02,-9.794345270958451977e+00
0.000000000000000000e+00,9.214025556400903816e-02,-9.794345265898877884e+00
0.000000000000000000e+00,9.165495221393969716e-02,-9.794345260892329819e+00
0.000000000000000000e+00,9.117219636952747508e-02,-9.794345255938260664e+00
0.000000000000000000e+00,9.069197465813598480e-02,-9.794345251036114419e+00
0.000000000000000000e+00,9.021427377732575692e-02,-9.794345246185351073e+00
0.000000000000000000e+00,8.973908049448596491e-02,-9.794345241385430612e+00
0.000000000000000000e+00,8.926638164646782947e-02,-9.794345236635821905e+00
0.000000000000000000e+00,8.879616413921991025e-02,-9.794345231935999152e+00
0.000000000000000000e+00,8.832841494742545152e-02,-9.794345227285438327e+00
0.000000000000000000e+00,8.786312111414161519e-02,-9.794345222683622509e+00
0.000000000000000000e+00,8.740026975044054569e-02,-9.794345218130045438e+00
0.000000000000000000e+00,8.693984803505219738e-02,-9.794345213624200852e+00
0.000000000000000000e+00,8.648184321400952113e-02,-9.794345209165586041e+00
0.000000000000000000e+00,8.602624260029467784e-02,-9.794345204753712508e+00
0.000000000000000000e+00,8.557303357348805539e-02,-9.794345200388082873e+00
0.000000000000000000e+00,8.512220357941845117e-02,-9.794345196068215742e+00
0.000000000000000000e+00,8.467374012981533637e-02,-9.794345191793635053e+00
0.000000000000000000e+00,8.422763080196288277e-02,-9.794345187563862964e+00
0.000000000000000000e+00,8.378386323835597393e-02,-9.794345183378432296e+00
0.000000000000000000e+00,8.334242514635779864e-02,-9.794345179236877641e+00
0.000000000000000000e+00,8.290330429785938704e-02,-9.794345175138738924e+00
0.000000000000000000e+00,8.246648852894082615e-02,-9.794345171083561397e+00
0.000000000000000000e+00,8.203196573953432102e-02,-9.794345167070897418e+00
0.000000000000000000e+00,8.159972389308908780e-02,-9.794345163100301122e+00
0.000000000000000000e+00,8.116975101623785660e-02,-9.794345159171330195e+00
0.000000000000000000e+00,8.074203519846520627e-02,-9.794345155283547655e+00
0.000000000000000000e+00,8.031656459177770324e-02,-9.794345151436527175e+00
0.000000000000000000e+00,7.989332741037563634e-02,-9.794345147629833548e+00
0.000000000000000000e+00,7.947231193032658347e-02,-9.794345143863056435e+00
0.000000000000000000e+00,7.905350648924061585e-02,-9.794345140135767736e+00
0.000000000000000000e+00,7.863689948594723700e-02,-9.794345136447555333e+00
0.000000000000000000e+00,7.822247938017411195e-02,-9.794345132798012443e+00
0.000000000000000000e+00,7.781023469222722588e-02,-9.794345129186734056e+00
0.000000000000000000e+00,7.740015400267311052e-02,-9.794345125613318714e+00
0.000000000000000000e+00,7.699222595202234731e-02,-9.794345122077368515e+00
0.000000000000000000e+00,7.658643924041487472e-02,-9.794345118578492659e+00
0.000000000000000000e+00,7.618278262730721062e-02,-9.794345115116300349e+00
0.000000000000000000e+00,7.578124493116084048e-02,-9.794345111690411443e+00
0.000000000000000000e+00,7.538181502913254839e-02,-9.794345108300440472e+00
0.000000000000000000e+00,7.498448185676638567e-02,-9.794345104946017955e+00
0.000000000000000000e+00,7.458923440768698565e-02,-9.794345101626767303e+00
0.000000000000000000e+00,7.419606173329501564e-02,-9.794345098342319034e+00
0.000000000000000000e+00,7.380495294246354476e-02,-9.794345095092308995e+00
0.000000000000000000e+00,7.341589720123661844e-02,-9.794345091876381915e+00
0.000000000000000000e+00,7.302888373252888754e-02,-9.794345088694171864e+00
0.000000000000000000e+00,7.264390181582734696e-02,-9.794345085545332452e+00
0.000000000000000000e+00,7.226094078689423994e-02,-9.794345082429513738e+00
0.000000000000000000e+00,7.187999003747155835e-02,-9.794345079346362226e+00
0.000000000000000000e+00,7.150103901498737480e-02,-9.794345076295545738e+00
0.000000000000000000e+00,7.112407722226336826e-02,-9.794345073276723213e+00
0.000000000000000000e+00,7.074909421722420932e-02,-9.794345070289551813e+00
0.000000000000000000e+00,7.037607961260822220e-02,-9.794345067333710020e+00
0.000000000000000000e+00,7.000502307567955940e-02,-9.794345064408863877e+00
0.000000000000000000e+00,6.963591432794209724e-02,-9.794345061514690087e+00
0.000000000000000000e+00,6.926874314485470530e-02,-9.794345058650867131e+00
0.000000000000000000e+00,6.890349935554798688e-02,-9.794345055817077039e+00
0.000000000000000000e+00,6.854017284254253217e-02,-9.794345053013008950e+00
0.000000000000000000e+00,6.817875354146868405e-02,-9.794345050238343120e+00
0.000000000000000000e+00,6.781923144078783050e-02,-9.794345047492777567e+00
0.000000000000000000e+00,6.746159658151484884e-02,-9.794345044776006759e+00
0.000000000000000000e+00,6.710583905694246509e-02,-9.794345042087728714e+00
0.000000000000000000e+00,6.675194901236672362e-02,-9.794345039427645006e+00
0.000000000000000000e+00,6.639991664481409428e-02,-9.794345036795457204e+00
0.000000000000000000e+00,6.604973220276971757e-02,-9.794345034190879318e+00
0.000000000000000000e+00,6.570138598590750945e-02,-9.794345031613616470e+00
0.000000000000000000e+00,6.535486834482130691e-02,-9.794345029063384445e+00
0.000000000000000000e+00,6.501016968075773450e-02,-9.794345026539900800e+00
0.000000000000000000e+00,6.466728044535012543e-02,-9.794345024042884873e+00
0.000000000000000000e+00,6.432619114035413588e-02,-9.794345021572059551e+00
0.000000000000000000e+00,6.398689231738463601e-02,-9.794345019127147722e+00
0.000000000000000000e+00,6.364937457765391937e-02,-9.794345016707881157e+00
0.000000000000000000e+00,6.331362857171139724e-02,-9.794345014313989850e+00
0.000000000000000000e+00,6.297964499918463910e-02,-9.794345011945209123e+00
0.000000000000000000e+00,6.264741460852171762e-02,-9.794345009601276075e+00
0.000000000000000000e+00,6.231692819673487899e-02,-9.794345007281926030e+00
0.000000000000000000e+00,6.198817660914569816e-02,-9.794345004986904968e+00
0.000000000000000000e+00,6.166115073913150391e-02,-9.794345002715962423e+00
0.000000000000000000e+00,6.133584152787301125e-02,-9.794345000468837270e+00
0.000000000000000000e+00,6.101223996410345268e-02,-9.794344998245282596e+00
0.000000000000000000e+00,6.069033708385902087e-02,-9.794344996045053264e+00
0.000000000000000000e+00,6.037012397023046317e-02,-9.794344993867909466e+00
0.000000000000000000e+00,6.005159175311605702e-02,-9.794344991713597182e+00
0.000000000000000000e+00,5.973473160897602163e-02,-9.794344989581889038e+00
0.000000000000000000e+00,5.941953476058802613e-02,-9.794344987472541675e+00
0.000000000000000000e+00,5.910599247680406454e-02,-9.794344985385322389e+00
0.000000000000000000e+00,5.879409607230858675e-02,-9.794344983319998477e+00
0.000000000000000000e+00,5.848383690737792712e-02,-9.794344981276342565e+00
0.000000000000000000e+00,5.817520638764098195e-02,-9.794344979254127281e+00
0.000000000000000000e+00,5.786819596384110143e-02,-9.794344977253125251e+00
0.000000000000000000e+00,5.756279713159931366e-02,-9.794344975273117981e+00
0.000000000000000000e+00,5.725900143117876318e-02,-9.794344973313883429e+00
0.000000000000000000e+00,5.695680044725030811e-02,-9.794344971375204878e+00
0.000000000000000000e+00,5.665618580865945664e-02,-9.794344969456860284e+00
0.000000000000000000e+00,5.635714918819452468e-02,-9.794344967558648918e+00
0.000000000000000000e+00,5.605968230235581357e-02,-9.794344965680352288e+00
0.000000000000000000e+00,5.576377691112628654e-02,-9.794344963821759009e+00
0.000000000000000000e+00,5.546942481774329303e-02,-9.794344961982668352e+00
0.000000000000000000e+00,5.517661786847145866e-02,-9.794344960162872482e+00
0.000000000000000000e+00,5.488534795237690750e-02,-9.794344958362172449e+00
0.000000000000000000e+00,5.459560700110251824e-02,-9.794344956580363970e+00
0.000000000000000000e+00,5.430738698864447794e-02,-9.794344954817253424e+00
0.000000000000000000e+00,5.402067993112986272e-02,-9.794344953072641857e+00
0.000000000000000000e+00,5.373547788659557151e-02,-9.794344951346337425e+00
0.000000000000000000e+00,5.345177295476831458e-02,-9.794344949638144726e+00
0.000000000000000000e+00,5.316955727684573307e-02,-9.794344947947875468e+00
0.000000000000000000e+00,5.288882303527870504e-02,-9.794344946275344910e+00
0.000000000000000000e+00,5.260956245355485894e-02,-9.794344944620366533e+00
0.000000000000000000e+00,5.233176779598307238e-02,-9.794344942982752045e+00
0.000000000000000000e+00,5.205543136747924765e-02,-9.794344941362320256e+00
0.000000000000000000e+00,5.178054551335312811e-02,-9.794344939758897084e+00
0.000000000000000000e+00,5.150710261909634269e-02,-9.794344938172299564e+00
0.000000000000000000e+00,5.123509511017131091e-02,-9.794344936602348284e+00
0.000000000000000000e+00,5.096451545180155640e-02,-9.794344935048878042e+00
0.000000000000000000e+00,5.069535614876293644e-02,-9.794344933511705875e+00
0.000000000000000000e+00,5.042760974517601635e-02,-9.794344931990668357e+00
0.000000000000000000e+00,5.016126882429964434e-02,-9.794344930485591405e+00
0.000000000000000000e+00,4.989632600832532433e-02,-9.794344928996309818e+00
0.000000000000000000e+00,4.963277395817295573e-02,-9.794344927522661948e+00
0.000000000000000000e+00,4.937060537328747528e-02,-9.794344926064475487e+00
0.000000000000000000e+00,4.910981299143673401e-02,-9.794344924621594117e+00
0.000000000000000000e+00,4.885038958851024155e-02,-9.794344923193857966e+00
0.000000000000000000e+00,4.859232797831906231e-02,-9.794344921781107161e+00
0.000000000000000000e+00,4.833562101239677333e-02,-9.794344920383180053e+00
0.000000000000000000e+00,4.808026157980144211e-02,-9.794344918999929206e+00
0.000000000000000000e+00,4.782624260691865914e-02,-9.794344917631192970e+00
0.000000000000000000e+00,4.757355705726552808e-02,-9.794344916276825685e+00
0.000000000000000000e+00,4.732219793129584240e-02,-9.794344914936672808e+00
0.000000000000000000e+00,4.707215826620615023e-02,-9.794344913610586900e+00
0.000000000000000000e+00,4.682343113574287397e-02,-9.794344912298422301e+00
0.000000000000000000e+00,4.657600965001049143e-02,-9.794344911000029796e+00
0.000000000000000000e+00,4.632988695528063999e-02,-9.794344909715263725e+00
0.000000000000000000e+00,4.608505623380225458e-02,-9.794344908443989084e+00
0.000000000000000000e+00,4.584151070361271174e-02,-9.794344907186056659e+00
0.000000000000000000e+00,4.559924361835001466e-02,-9.794344905941329671e+00
0.000000000000000000e+00,4.535824826706590790e-02,-9.794344904709666011e+00
0.000000000000000000e+00,4.511851797403992892e-02,-9.794344903490934229e+00
0.000000000000000000e+00,4.488004609859447963e-02,-9.794344902284995769e+00
0.000000000000000000e+00,4.464282603491099427e-02,-9.794344901091717404e+00
0.000000000000000000e+00,4.440685121184679424e-02,-9.794344899910965907e+00
0.000000000000000000e+00,4.417211509275313641e-02,-9.794344898742609828e+00
0.000000000000000000e+00,4.393861117529422600e-02,-9.794344897586521270e+00
0.000000000000000000e+00,4.370633299126694404e-02,-9.794344896442567006e+00
0.000000000000000000e+00,4.347527410642178930e-02,-9.794344895310626242e+00
0.000000000000000000e+00,4.324542812028453476e-02,-9.794344894190567530e+00
0.000000000000000000e+00,4.301678866597907075e-02,-9.794344893082266523e+00
0.000000000000000000e+00,4.278934941005094889e-02,-9.794344891985602430e+00
0.000000000000000000e+00,4.256310405229198068e-02,-9.794344890900454459e+00
0.000000000000000000e+00,4.233804632556566888e-02,-9.794344889826700040e+00
0.000000000000000000e+00,4.211416999563364488e-02,-9.794344888764216606e+00
0.000000000000000000e+00,4.189146886098296663e-02,-9.794344887712894021e+00
0.000000000000000000e+00,4.166993675265429076e-02,-9.794344886672604389e+00
0.000000000000000000e+00,4.144956753407106481e-02,-9.794344885643244680e+00
0.000000000000000000e+00,4.123035510086949657e-02,-9.794344884624688774e+00
0.000000000000000000e+00,4.101229338072946012e-02,-9.794344883616830089e+00
0.000000000000000000e+00,4.079537633320634571e-02,-9.794344882619553161e+00
0.000000000000000000e+00,4.057959794956363803e-02,-9.794344881632747857e+00
0.000000000000000000e+00,4.036495225260650077e-02,-9.794344880656305818e+00
0.000000000000000000e+00,4.015143329651626319e-02,-9.794344879690116912e+00
0.000000000000000000e+00,3.993903516668566300e-02,-9.794344878734072779e+00
0.000000000000000000e+00,3.972775197955499132e-02,-9.794344877788073944e+00
0.000000000000000000e+00,3.951757788244919523e-02,-9.794344876852006720e+00
0.000000000000000000e+00,3.930850705341566720e-02,-9.794344875925768079e+00
0.000000000000000000e+00,3.910053370106299914e-02,-9.794344875009258544e+00
0.000000000000000000e+00,3.889365206440058981e-02,-9.794344874102375087e+00
0.000000000000000000e+00,3.868785641267907111e-02,-9.794344873205014679e+00
0.000000000000000000e+00,3.848314104523147677e-02,-9.794344872317079620e+00
0.000000000000000000e+00,3.827950029131542420e-02,-9.794344871438468658e+00
0.000000000000000000e+00,3.807692850995593459e-02,-9.794344870569085870e+00
0.000000000000000000e+00,3.787542008978928704e-02,-9.794344869708835333e+00
0.000000000000000000e+00,3.767496944890749017e-02,-9.794344868857619346e+00
0.000000000000000000e+00,3.747557103470369744e-02,-9.794344868015343764e+00
0.000000000000000000e+00,3.727721932371846209e-02,-9.794344867181914438e+00
0.000000000000000000e+00,3.707990882148657491e-02,-9.794344866357242552e+00
0.000000000000000000e+00,3.688363406238499842e-02,-9.794344865541230405e+00
0.000000000000000000e+00,3.668838960948139077e-02,-9.794344864733789180e+00
0.000000000000000000e+00,3.649417005438357342e-02,-9.794344863934833612e+00
0.000000000000000000e+00,3.630097001708970650e-02,-9.794344863144266000e+00
0.000000000000000000e+00,3.610878414583911650e-02,-9.794344862362004633e+00
0.000000000000000000e+00,3.591760711696423414e-02,-9.794344861587962470e+00
0.000000000000000000e+00,3.572743363474301104e-02,-9.794344860822048915e+00
0.000000000000000000e+00,3.553825843125229395e-02,-9.794344860064182257e+00
0.000000000000000000e+00,3.535007626622186511e-02,-9.794344859314277230e+00
0.000000000000000000e+00,3.516288192688924591e-02,-9.794344858572250345e+00
0.000000000000000000e+00,3.497667022785539565e-02,-9.794344857838021667e+00
0.000000000000000000e+00,3.479143601094101396e-02,-9.794344857111502378e+00
0.000000000000000000e+00,3.460717414504362044e-02,-9.794344856392617871e+00
0.000000000000000000e+00,3.442387952599550854e-02,-9.794344855681286433e+00
0.000000000000000000e+00,3.424154707642226153e-02,-9.794344854977429904e+00
0.000000000000000000e+00,3.406017174560220517e-02,-9.794344854280968349e+00
0.000000000000000000e+00,3.387974850932645721e-02,-9.794344853591821831e+00
0.000000000000000000e+00,3.370027236975966373e-02,-9.794344852909921073e+00
0.000000000000000000e+00,3.352173835530172091e-02,-9.794344852235180809e+00
0.000000000000000000e+00,3.334414152044991309e-02,-9.794344851567531762e+00
0.000000000000000000e+00,3.316747694566202220e-02,-9.794344850906897548e+00
0.000000000000000000e+00,3.299173973722001330e-02,-9.794344850253207113e+00
0.000000000000000000e+00,3.281692502709441378e-02,-9.794344849606384074e+00
0.000000000000000000e+00,3.264302797280958096e-02,-9.794344848966360928e+00
0.000000000000000000e+00,3.247004375730948300e-02,-9.794344848333061293e+00
0.000000000000000000e+00,3.229796758882430563e-02,-9.794344847706417667e+00
0.000000000000000000e+00,3.212679470073769028e-02,-9.794344847086358996e+00
0.000000000000000000e+00,3.195652035145468001e-02,-9.794344846472814226e+00
0.000000000000000000e+00,3.178713982427051193e-02,-9.794344845865721183e+00
0.000000000000000000e+00,3.161864842723968727e-02,-9.794344845265007038e+00
0.000000000000000000e+00,3.145104149304626256e-02,-9.794344844670604289e+00
0.000000000000000000e+00,3.128431437887445321e-02,-9.794344844082452539e+00
0.000000000000000000e+00,3.111846246628003840e-02,-9.794344843500478959e+00
0.000000000000000000e+00,3.095348116106239403e-02,-9.794344842924624928e+00
0.000000000000000000e+00,3.078936589313726463e-02,-9.794344842354819392e+00
0.000000000000000000e+00,3.062611211641017364e-02,-9.794344841791009060e+00
0.000000000000000000e+00,3.046371530865048943e-02,-9.794344841233122878e+00
0.000000000000000000e+00,3.030217097136614357e-02,-9.794344840681096898e+00
0.000000000000000000e+00,3.014147462967901522e-02,-9.794344840134876051e+00
0.000000000000000000e+00,2.998162183220103374e-02,-9.794344839594399943e+00
0.000000000000000000e+00,2.982260815091079473e-02,-9.794344839059601071e+00
0.000000000000000000e+00,2.966442918103091159e-02,-9.794344838530426145e+00
0.000000000000000000e+00,2.950708054090602633e-02,-9.794344838006816545e+00
0.000000000000000000e+00,2.935055787188148302e-02,-9.794344837488706546e+00
0.000000000000000000e+00,2.919485683818248689e-02,-9.794344836976044633e+00
0.000000000000000000e+00,2.903997312679407541e-02,-9.794344836468773963e+00
0.000000000000000000e+00,2.888590244734159582e-02,-9.794344835966835916e+00
0.000000000000000000e+00,2.873264053197189041e-02,-9.794344835470173649e+00
0.000000000000000000e+00,2.858018313523509255e-02,-9.794344834978737424e+00
0.000000000000000000e+00,2.842852603396696723e-02,-9.794344834492465068e+00
0.000000000000000000e+00,2.827766502717200814e-02,-9.794344834011305068e+00
0.000000000000000000e+00,2.812759593590695439e-02,-9.794344833535204131e+00
0.000000000000000000e+00,2.797831460316513655e-02,-9.794344833064110745e+00
0.000000000000000000e+00,2.782981689376126666e-02,-9.794344832597969841e+00
0.000000000000000000e+00,2.768209869421694655e-02,-9.794344832136731682e+00
0.000000000000000000e+00,2.753515591264664789e-02,-9.794344831680341201e+00
0.000000000000000000e+00,2.738898447864440006e-02,-9.794344831228750436e+00
0.000000000000000000e+00,2.724358034317102620e-02,-9.794344830781913203e+00
0.000000000000000000e+00,2.709893947844200721e-02,-9.794344830339770880e+00
0.000000000000000000e+00,2.695505787781589391e-02,-9.794344829902279059e+00
0.000000000000000000e+00,2.681193155568338538e-02,-9.794344829469389779e+00
0.000000000000000000e+00,2.666955654735676459e-02,-9.794344829041049749e+00
0.000000000000000000e+00,2.652792890896022576e-02,-9.794344828617216336e+00
0.000000000000000000e+00,2.638704471732054163e-02,-9.794344828197841579e+00
0.000000000000000000e+00,2.624690006985846633e-02,-9.794344827782875740e+00
0.000000000000000000e+00,2.610749108448056494e-02,-9.794344827372277962e+00
0.000000000000000000e+00,2.596881389947167454e-02,-9.794344826965996731e+00
0.000000000000000000e+00,2.583086467338799666e-02,-9.794344826563987638e+00
0.000000000000000000e+00,2.569363958495063036e-02,-9.794344826166209828e+00
0.000000000000000000e+00,2.555713483293971591e-02,-9.794344825772613561e+00
0.000000000000000000e+00,2.542134663608921347e-02,-9.794344825383159758e+00
0.000000000000000000e+00,2.528627123298205631e-02,-9.794344824997800458e+00
0.000000000000000000e+00,2.515190488194598076e-02,-9.794344824616498357e+00
0.000000000000000000e+00,2.501824386094995620e-02,-9.794344824239203717e+00
0.000000000000000000e+00,2.488528446750101070e-02,-9.794344823865879235e+00
0.000000000000000000e+00,2.475302301854169496e-02,-9.794344823496484054e+00
0.000000000000000000e+00,2.462145585034805281e-02,-9.794344823130977318e+00
0.000000000000000000e+00,2.449057931842816074e-02,-9.794344822769309289e+00
0.000000000000000000e+00,2.436038979742109062e-02,-9.794344822411451545e+00
0.000000000000000000e+00,2.423088368099661147e-02,-9.794344822057357902e+00
0.000000000000000000e+00,2.410205738175516879e-02,-9.794344821706991056e+00
0.000000000000000000e+00,2.397390733112858205e-02,-9.794344821360310149e+00
0.000000000000000000e+00,2.384642997928119318e-02,-9.794344821017276104e+00
0.000000000000000000e+00,2.371962179501149043e-02,-9.794344820677851615e+00
0.000000000000000000e+00,2.359347926565432893e-02,-9.794344820342002933e+00
0.000000000000000000e+00,2.346799889698360578e-02,-9.794344820009683872e+00
0.000000000000000000e+00,2.334317721311547980e-02,-9.794344819680862457e+00
0.000000000000000000e+00,2.321901075641207013e-02,-9.794344819355503162e+00
0.000000000000000000e+00,2.309549608738576884e-02,-9.794344819033568683e+00
0.000000000000000000e+00,2.297262978460381730e-02,-9.794344818715018164e+00
0.000000000000000000e+00,2.285040844459362494e-02,-9.794344818399823183e+00
0.000000000000000000e+00,2.272882868174846277e-02,-9.794344818087946436e+00
0.000000000000000000e+00,2.260788712823369115e-02,-9.794344817779354173e+00
0.000000000000000000e+00,2.248758043389346636e-02,-9.794344817474007314e+00
0.000000000000000000e+00,2.236790526615795027e-02,-9.794344817171873885e+00
0.000000000000000000e+00,2.224885830995098138e-02,-9.794344816872920134e+00
0.000000000000000000e+00,2.213043626759823163e-02,-9.794344816577115864e+00
0.000000000000000000e+00,2.201263585873591139e-02,-9.794344816284423771e+00
0.000000000000000000e+00,2.189545382021979014e-02,-9.794344815994813658e+00
0.000000000000000000e+00,2.177888690603493882e-02,-9.794344815708249996e+00
0.000000000000000000e+00,2.166293188720570112e-02,-9.794344815424706141e+00
0.000000000000000000e+00,2.154758555170637260e-02,-9.794344815144148342e+00
0.000000000000000000e+00,2.143284470437208794e-02,-9.794344814866539295e+00
0.000000000000000000e+00,2.131870616681041594e-02,-9.794344814591859461e+00
0.000000000000000000e+00,2.120516677731327723e-02,-9.794344814320067982e+00
0.000000000000000000e+00,2.109222339076933378e-02,-9.794344814051138215e+00
0.000000000000000000e+00,2.097987287857694394e-02,-9.794344813785039960e+00
0.000000000000000000e+00,2.086811212855740894e-02,-9.794344813521744797e+00
0.000000000000000000e+00,2.075693804486885077e-02,-9.794344813261222527e+00
0.000000000000000000e+00,2.064634754792039895e-02,-9.794344813003442951e+00
0.000000000000000000e+00,2.053633757428686632e-02,-9.794344812748379425e+00
0.000000000000000000e+00,2.042690507662393157e-02,-9.794344812495998198e+00
0.000000000000000000e+00,2.031804702358374834e-02,-9.794344812246279730e+00
0.000000000000000000e+00,2.020976039973093608e-02,-9.794344811999186717e+00
0.000000000000000000e+00,2.010204220545900450e-02,-9.794344811754697844e+00
0.000000000000000000e+00,1.999488945690736444e-02,-9.794344811512786464e+00
0.000000000000000000e+00,1.988829918587859888e-02,-9.794344811273422380e+00
0.000000000000000000e+00,1.978226843975631338e-02,-9.794344811036575393e+00
0.000000000000000000e+00,1.967679428142321899e-02,-9.794344810802227741e+00
0.000000000000000000e+00,1.957187378917991938e-02,-9.794344810570345672e+00
0.000000000000000000e+00,1.946750405666390280e-02,-9.794344810340907870e+00
0.000000000000000000e+00,1.936368219276899880e-02,-9.794344810113885913e+00
0.000000000000000000e+00,1.926040532156539711e-02,-9.794344809889258485e+00
0.000000000000000000e+00,1.915767058221988159e-02,-9.794344809666995388e+00
0.000000000000000000e+00,1.905547512891662618e-02,-9.794344809447073530e+00
0.000000000000000000e+00,1.895381613077835870e-02,-9.794344809229468041e+00
0.000000000000000000e+00,1.885269077178800337e-02,-9.794344809014157605e+00
0.000000000000000000e+00,1.875209625071053848e-02,-9.794344808801113800e+00
0.000000000000000000e+00,1.865202978101552014e-02,-9.794344808590317086e+00
0.000000000000000000e+00,1.855248859079984547e-02,-9.794344808381740819e+00
0.000000000000000000e+00,1.845346992271103270e-02,-9.794344808175360129e+00
0.000000000000000000e+00,1.835497103387073725e-02,-9.794344807971155475e+00
0.000000000000000000e+00,1.825698919579881244e-02,-9.794344807769103767e+00
0.000000000000000000e+00,1.815952169433770677e-02,-9.794344807569181910e+00
0.000000000000000000e+00,1.806256582957737819e-02,-9.794344807371366812e+00
0.000000000000000000e+00,1.796611891578042686e-02,-9.794344807175633605e+00
0.000000000000000000e+00,1.787017828130768593e-02,-9.794344806981966300e+00
0.000000000000000000e+00,1.777474126854425296e-02,-9.794344806790340030e+00
0.000000000000000000e+00,1.767980523382583699e-02,-9.794344806600731701e+00
0.000000000000000000e+00,1.758536754736559141e-02,-9.794344806413121773e+00
0.000000000000000000e+00,1.749142559318116186e-02,-9.794344806227492484e+00
0.000000000000000000e+00,1.739797676902234483e-02,-9.794344806043817186e+00
0.000000000000000000e+00,1.730501848629891620e-02,-9.794344805862083447e+00
0.000000000000000000e+00,1.721254817000896289e-02,-9.794344805682261068e+00
0.000000000000000000e+00,1.712056325866753714e-02,-9.794344805504334062e+00
0.000000000000000000e+00,1.702906120423573755e-02,-9.794344805328282888e+00
0.000000000000000000e+00,1.693803947205003643e-02,-9.794344805154089784e+00
0.000000000000000000e+00,1.684749554075219355e-02,-9.794344804981733432e+00
0.000000000000000000e+00,1.675742690221929121e-02,-9.794344804811194294e+00
0.000000000000000000e+00,1.666783106149434882e-02,-9.794344804642452829e+00
0.000000000000000000e+00,1.657870553671718372e-02,-9.794344804475491273e+00
0.000000000000000000e+00,1.649004785905564680e-02,-9.794344804310290087e+00
0.000000000000000000e+00,1.640185557263723615e-02,-9.794344804146829730e+00
0.000000000000000000e+00,1.631412623448110985e-02,-9.794344803985095993e+00
0.000000000000000000e+00,1.622685741443033805e-02,-9.794344803825064005e+00
0.000000000000000000e+00,1.614004669508465467e-02,-9.794344803666721333e+00
0.000000000000000000e+00,1.605369167173343811e-02,-9.794344803510051989e+00
0.000000000000000000e+00,1.596778995228912562e-02,-9.794344803355034657e+00
0.000000000000000000e+00,1.588233915722099196e-02,-9.794344803201649796e+00
0.000000000000000000e+00,1.579733691948917093e-02,-9.794344803049884973e+00
0.000000000000000000e+00,1.571278088447913140e-02,-9.794344802899720648e+00
0.000000000000000000e+00,1.562866870993637539e-02,-9.794344802751139056e+00
0.000000000000000000e+00,1.554499806590170508e-02,-9.794344802604125988e+00
0.000000000000000000e+00,1.546176663464650554e-02,-9.794344802458665455e+00
0.000000000000000000e+00,1.537897211060869525e-02,-9.794344802314736143e+00
0.000000000000000000e+00,1.529661220032873734e-02,-9.794344802172329167e+00
0.000000000000000000e+00,1.521468462238620249e-02,-9.794344802031423214e+00
0.000000000000000000e+00,1.513318710733650881e-02,-9.794344801892004071e+00
0.000000000000000000e+00,1.505211739764810742e-02,-9.794344801754055752e+00
0.000000000000000000e+00,1.497147324763992843e-02,-9.794344801617564045e+00
0.000000000000000000e+00,1.489125242341912680e-02,-9.794344801482512963e+00
0.000000000000000000e+00,1.481145270281926558e-02,-9.794344801348886520e+00
0.000000000000000000e+00,1.473207187533875397e-02,-9.794344801216670504e+00
0.000000000000000000e+00,1.465310774207960118e-02,-9.794344801085850705e+00
0.000000000000000000e+00,1.457455811568645655e-02,-9.794344800956411135e+00
0.000000000000000000e+00,1.449642082028612666e-02,-9.794344800828335806e+00
0.000000000000000000e+00,1.441869369142720000e-02,-9.794344800701617615e+00
0.000000000000000000e+00,1.434137457602016955e-02,-9.794344800576231691e+00
0.000000000000000000e+00,1.426446133227770967e-02,-9.794344800452174482e+00
0.000000000000000000e+00,1.418795182965540934e-02,-9.794344800329424672e+00
0.000000000000000000e+00,1.411184394879274294e-02,-9.794344800207969826e+00
0.000000000000000000e+00,1.403613558145435161e-02,-9.794344800087797509e+00
0.000000000000000000e+00,1.396082463047165420e-02,-9.794344799968893511e+00
0.000000000000000000e+00,1.388590900968473228e-02,-9.794344799851247174e+00
0.000000000000000000e+00,1.381138664388460897e-02,-9.794344799734842510e+00
0.000000000000000000e+00,1.373725546875564051e-02,-9.794344799619667086e+00
0.000000000000000000e+00,1.366351343081846983e-02,-9.794344799505704913e+00
0.000000000000000000e+00,1.359015848737305139e-02,-9.794344799392950662e+00
0.000000000000000000e+00,1.351718860644207133e-02,-9.794344799281386571e+00
0.000000000000000000e+00,1.344460176671470088e-02,-9.794344799171000204e+00
0.000000000000000000e+00,1.337239595749062024e-02,-9.794344799061780904e+00
0.000000000000000000e+00,1.330056917862428197e-02,-9.794344798953712683e+00
0.000000000000000000e+00,1.322911944046950214e-02,-9.794344798846788436e+00
0.000000000000000000e+00,1.315804476382433780e-02,-9.794344798740993951e+00
0.000000000000000000e+00,1.308734317987630437e-02,-9.794344798636315019e+00
0.000000000000000000e+00,1.301701273014782209e-02,-9.794344798532744534e+00
0.000000000000000000e+00,1.294705146644195212e-02,-9.794344798430264731e+00
0.000000000000000000e+00,1.287745745078843450e-02,-9.794344798328872059e+00
0.000000000000000000e+00,1.280822875538998110e-02,-9.794344798228545201e+00
0.000000000000000000e+00,1.273936346256892768e-02,-9.794344798129285934e+00
0.000000000000000000e+00,1.267085966471409066e-02,-9.794344798031071164e+00
0.000000000000000000e+00,1.260271546422794646e-02,-9.794344797933893787e+00
0.000000000000000000e+00,1.253492897347399659e-02,-9.794344797837744920e+00
0.000000000000000000e+00,1.246749831472452469e-02,-9.794344797742612130e+00
0.000000000000000000e+00,1.240042162010862072e-02,-9.794344797648486534e+00
0.000000000000000000e+00,1.233369703156033878e-02,-9.794344797555353921e+00
0.000000000000000000e+00,1.226732270076734757e-02,-9.794344797463203633e+00
0.000000000000000000e+00,1.220129678911964152e-02,-9.794344797372030342e+00
0.000000000000000000e+00,1.213561746765864056e-02,-9.794344797281821613e+00
0.000000000000000000e+00,1.207028291702655180e-02,-9.794344797192566787e+00
0.000000000000000000e+00,1.200529132741591162e-02,-9.794344797104255207e+00
0.000000000000000000e+00,1.194064089851953891e-02,-9.794344797016876214e+00
0.000000000000000000e+00,1.187632983948056463e-02,-9.794344796930420927e+00
0.000000000000000000e+00,1.181235636884286899e-02,-9.794344796844880463e+00
0.000000000000000000e+00,1.174871871450177373e-02,-9.794344796760245941e+00
0.000000000000000000e+00,1.168541511365492162e-02,-9.794344796676506704e+00
0.000000000000000000e+00,1.162244381275344407e-02,-9.794344796593650315e+00
0.000000000000000000e+00,1.155980306745338013e-02,-9.794344796511671447e+00
0.000000000000000000e+00,1.149749114256735927e-02,-9.794344796430557665e+00
0.000000000000000000e+00,1.143550631201654087e-02,-9.794344796350307192e+00
0.000000000000000000e+00,1.137384685878277575e-02,-9.794344796270902265e+00
0.000000000000000000e+00,1.131251107486107819e-02,-9.794344796192335778e+00
0.000000000000000000e+00,1.125149726121230966e-02,-9.794344796114605955e+00
0.000000000000000000e+00,1.119080372771611570e-02,-9.794344796037695033e+00
0.000000000000000000e+00,1.113042879312409889e-02,-9.794344795961597683e+00
0.000000000000000000e+00,1.107037078501326745e-02,-9.794344795886308574e+00
0.000000000000000000e+00,1.101062803973965401e-02,-9.794344795811811721e+00
0.000000000000000000e+00,1.095119890239230204e-02,-9.794344795738103571e+00
0.000000000000000000e+00,1.089208172674735985e-02,-9.794344795665178793e+00
0.000000000000000000e+00,1.083327487522252851e-02,-9.794344795593026731e+00
0.000000000000000000e+00,1.077477671883163290e-02,-9.794344795521633174e+00
0.000000000000000000e+00,1.071658563713959698e-02,-9.794344795450999897e+00
0.000000000000000000e+00,1.065870001821749187e-02,-9.794344795381112689e+00
0.000000000000000000e+00,1.060111825859785285e-02,-9.794344795311962670e+00
0.000000000000000000e+00,1.054383876323037976e-02,-9.794344795243549839e+00
0.000000000000000000e+00,1.048685994543762517e-02,-9.794344795175858209e+00
0.000000000000000000e+00,1.043018022687111634e-02,-9.794344795108882451e+00
0.000000000000000000e+00,1.037379803746761760e-02,-9.794344795042617235e+00
0.000000000000000000e+00,1.031771181540560439e-02,-9.794344794977057234e+00
0.000000000000000000e+00,1.026192000706204442e-02,-9.794344794912188235e+00
0.000000000000000000e+00,1.020642106696936953e-02,-9.794344794848006686e+00
0.000000000000000000e+00,1.015121345777261590e-02,-9.794344794784501929e+00
0.000000000000000000e+00,1.009629565018688689e-02,-9.794344794721673964e+00
0.000000000000000000e+00,1.004166612295495989e-02,-9.794344794659508580e+00
0.000000000000000000e+00,9.987323362805174132e-03,-9.794344794598004000e+00
0.000000000000000000e+00,9.933265864409500726e-03,-9.794344794537151344e+00
0.000000000000000000e+00,9.879492130341784376e-03,-9.794344794476943505e+00
0.000000000000000000e+00,9.826000671036377171e-03,-9.794344794417371602e+00
0.000000000000000000e+00,9.772790004746781042e-03,-9.794344794358433859e+00
0.000000000000000000e+00,9.719858657504654512e-03,-9.794344794300116064e+00
0.000000000000000000e+00,9.667205163078949545e-03,-9.794344794242419994e+00
0.000000000000000000e+00,9.614828062935306882e-03,-9.794344794185333214e+00
0.000000000000000000e+00,9.562725906195652589e-03,-9.794344794128853948e+00
0.000000000000000000e+00,9.510897249598044417e-03,-9.794344794072971538e+00
0.000000000000000000e+00,9.459340657456688159e-03,-9.794344794017682432e+00
0.000000000000000000e+00,9.408054701622087582e-03,-9.794344793962977747e+00
0.000000000000000000e+00,9.357037961441567325e-03,-9.794344793908855706e+00
0.000000000000000000e+00,9.306289023719886006e-03,-9.794344793855303877e+00
0.000000000000000000e+00,9.255806482680125138e-03,-9.794344793802325810e+00
0.000000000000000000e+00,9.205588939924673475e-03,-9.794344793749903744e+00
0.000000000000000000e+00,9.155635004396549606e-03,-9.794344793698037677e+00
0.000000000000000000e+00,9.105943292340884163e-03,-9.794344793646724057e+00
0.000000000000000000e+00,9.056512427266500895e-03,-9.794344793595957555e+00
0.000000000000000000e+00,9.007341039907888064e-03,-9.794344793545725736e+00
0.000000000000000000e+00,8.958427768187249632e-03,-9.794344793496025048e+00
0.000000000000000000e+00,8.909771257176679615e-03,-9.794344793446857267e+00
0.000000000000000000e+00,8.861370159060749305e-03,-9.794344793398206406e+00
0.000000000000000000e+00,8.813223133099134382e-03,-9.794344793350074241e+00
0.000000000000000000e+00,8.765328845589471021e-03,-9.794344793302451890e+00
0.000000000000000000e+00,8.717685969830366380e-03,-9.794344793255334025e+00
0.000000000000000000e+00,8.670293186084716136e-03,-9.794344793208717093e+00
0.000000000000000000e+00,8.623149181543108763e-03,-9.794344793162593987e+00
0.000000000000000000e+00,8.576252650287502152e-03,-9.794344793116959380e+00
0.000000000000000000e+00,8.529602293254999121e-03,-9.794344793071815047e+00
0.000000000000000000e+00,8.483196818201846692e-03,-9.794344793027143226e+00
0.000000000000000000e+00,8.437034939667714672e-03,-9.794344792982947467e+00
0.000000000000000000e+00,8.391115378940003713e-03,-9.794344792939220667e+00
0.000000000000000000e+00,8.345436864018515935e-03,-9.794344792895959273e+00
0.000000000000000000e+00,8.299998129580141160e-03,-9.794344792853157955e+00
0.000000000000000000e+00,8.254797916943848457e-03,-9.794344792810811384e+00
0.000000000000000000e+00,8.209834974035845959e-03,-9.794344792768912455e+00
0.000000000000000000e+00,8.165108055354789243e-03,-9.794344792727461169e+00
0.000000000000000000e+00,8.120615921937376566e-03,-9.794344792686448642e+00
0.000000000000000000e+00,8.076357341324015213e-03,-9.794344792645871323e+00
0.000000000000000000e+00,8.032331087524696017e-03,-9.794344792605725658e+00
0.000000000000000000e+00,7.988535940984978906e-03,-9.794344792566004543e+00
0.000000000000000000e+00,7.944970688552207422e-03,-9.794344792526709753e+00
0.000000000000000000e+00,7.901634123441962643e-03,-9.794344792487828855e+00
0.000000000000000000e+00,7.858525045204621182e-03,-9.794344792449360071e+00
0.000000000000000000e+00,7.815642259692057170e-03,-9.794344792411303402e+00
0.000000000000000000e+00,7.772984579024577560e-03,-9.794344792373649966e+00
0.000000000000000000e+00,7.730550821558095954e-03,-9.794344792336399763e+00
0.000000000000000000e+00,7.688339811851282145e-03,-9.794344792299542135e+00
0.000000000000000000e+00,7.646350380633100234e-03,-9.794344792263073529e+00
0.000000000000000000e+00,7.604581364770330275e-03,-9.794344792226997498e+00
0.000000000000000000e+00,7.563031607235404762e-03,-9.794344792191303384e+00
0.000000000000000000e+00,7.521699957074361349e-03,-9.794344792155991186e+00
0.000000000000000000e+00,7.480585269374930013e-03,-9.794344792121048471e+00
0.000000000000000000e+00,7.439686405234893427e-03,-9.794344792086482343e+00
0.000000000000000000e+00,7.399002231730397033e-03,-9.794344792052283921e+00
0.000000000000000000e+00,7.358531621884722290e-03,-9.794344792018449652e+00
0.000000000000000000e+00,7.318273454636951489e-03,-9.794344791984968879e+00
0.000000000000000000e+00,7.278226614810958707e-03,-9.794344791951850482e+00
0.000000000000000000e+00,7.238389993084532598e-03,-9.794344791919083804e+00
0.000000000000000000e+00,7.198762485958598058e-03,-9.794344791886665291e+00
0.000000000000000000e+00,7.159342995726741474e-03,-9.794344791854591392e+00
0.000000000000000000e+00,7.120130430444696068e-03,-9.794344791822860330e+00
0.000000000000000000e+00,7.081123703900181129e-03,-9.794344791791464999e+00
0.000000000000000000e+00,7.042321735582782009e-03,-9.794344791760407176e+00
0.000000000000000000e+00,7.003723450653998386e-03,-9.794344791729674427e+00
0.000000000000000000e+00,6.965327779917439982e-03,-9.794344791699272079e+00
0.000000000000000000e+00,6.927133659789309374e-03,-9.794344791669193029e+00
0.000000000000000000e+00,6.889140032268879603e-03,-9.794344791639435499e+00
0.000000000000000000e+00,6.851345844909205104e-03,-9.794344791609995937e+00
0.000000000000000000e+00,6.813750050787927177e-03,-9.794344791580867238e+00
0.000000000000000000e+00,6.776351608478276348e-03,-9.794344791552047624e+00
0.000000000000000000e+00,6.739149482020288101e-03,-9.794344791523537097e+00
0.000000000000000000e+00,6.702142640892067189e-03,-9.794344791495330327e+00
0.000000000000000000e+00,6.665330059981261837e-03,-9.794344791467423761e+00
0.000000000000000000e+00,6.628710719556625552e-03,-9.794344791439815623e+00
0.000000000000000000e+00,6.592283605239810523e-03,-9.794344791412498807e+00
0.000000000000000000e+00,6.556047707977231270e-03,-9.794344791385473314e+00
0.000000000000000000e+00,6.520002024012118251e-03,-9.794344791358739144e+00
0.000000000000000000e+00,6.484145554856742336e-03,-9.794344791332287414e+00
0.000000000000000000e+00,6.448477307264759845e-03,-9.794344791306118125e+00
0.000000000000000000e+00,6.412996293203648661e-03,-9.794344791280229501e+00
0.000000000000000000e+00,6.377701529827382865e-03,-9.794344791254616212e+00
0.000000000000000000e+00,6.342592039449208852e-03,-9.794344791229272928e+00
0.000000000000000000e+00,6.307666849514567166e-03,-9.794344791204203204e+00
0.000000000000000000e+00,6.272924992574116683e-03,-9.794344791179401710e+00
0.000000000000000000e+00,6.238365506256901907e-03,-9.794344791154863117e+00
0.000000000000000000e+00,6.203987433243830785e-03,-9.794344791130587424e+00
0.000000000000000000e+00,6.169789821241026748e-03,-9.794344791106567527e+00
0.000000000000000000e+00,6.135771722953472194e-03,-9.794344791082805202e+00
0.000000000000000000e+00,6.101932196058824573e-03,-9.794344791059298672e+00
0.000000000000000000e+00,6.068270303181279302e-03,-9.794344791036040832e+00
0.000000000000000000e+00,6.034785111865621776e-03,-9.794344791013031681e+00
0.000000000000000000e+00,6.001475694551359173e-03,-9.794344790990269445e+00
0.000000000000000000e+00,5.968341128547017052e-03,-9.794344790967747016e+00
0.000000000000000000e+00,5.935380496004648461e-03,-9.794344790945469725e+00
0.000000000000000000e+00,5.902592883894350849e-03,-9.794344790923428690e+00
0.000000000000000000e+00,5.869977383978992012e-03,-9.794344790901620357e+00
0.000000000000000000e+00,5.837533092789101707e-03,-9.794344790880046503e+00
0.000000000000000000e+00,5.805259111597744180e-03,-9.794344790858707128e+00
0.000000000000000000e+00,5.773154546395679529e-03,-9.794344790837589798e+00
0.000000000000000000e+00,5.741218507866620475e-03,-9.794344790816699842e+00
0.000000000000000000e+00,5.709450111362549853e-03,-9.794344790796033706e+00
0.000000000000000000e+00,5.677848476879266207e-03,-9.794344790775587839e+00
0.000000000000000000e+00,5.646412729031945882e-03,-9.794344790755360464e+00
0.000000000000000000e+00,5.615141997030950564e-03,-9.794344790735351580e+00
0.000000000000000000e+00,5.584035414657695547e-03,-9.794344790715554083e+00
0.000000000000000000e+00,5.553092120240615132e-03,-9.794344790695967973e+00
0.000000000000000000e+00,5.522311256631323197e-03,-9.794344790676591472e+00
0.000000000000000000e+00,5.491691971180877839e-03,-9.794344790657422806e+00
0.000000000000000000e+00,5.461233415716168320e-03,-9.794344790638456644e+00
0.000000000000000000e+00,5.430934746516347979e-03,-9.794344790619701868e+00
0.000000000000000000e+00,5.400795124289573326e-03,-9.794344790601138939e+00
0.000000000000000000e+00,5.370813714149692830e-03,-9.794344790582774962e+00
0.000000000000000000e+00,5.340989685593110041e-03,-9.794344790564611714e+00
0.000000000000000000e+00,5.311322212475805445e-03,-9.794344790546640311e+00
0.000000000000000000e+00,5.281810472990412959e-03,-9.794344790528862532e+00
0.000000000000000000e+00,5.252453649643529753e-03,-9.794344790511274823e+00
0.000000000000000000e+00,5.223250929233006108e-03,-9.794344790493873631e+00
0.000000000000000000e+00,5.194201502825428717e-03,-9.794344790476660734e+00
0.000000000000000000e+00,5.165304565733728863e-03,-9.794344790459630801e+00
0.000000000000000000e+00,5.136559317494884293e-03,-9.794344790442783832e+00
0.000000000000000000e+00,5.107964961847780670e-03,-9.794344790426116276e+00
0.000000000000000000e+00,5.079520706711054823e-03,-9.794344790409628132e+00
0.000000000000000000e+00,5.051225764161285797e-03,-9.794344790393317624e+00
0.000000000000000000e+00,5.023079350411074027e-03,-9.794344790377181198e+00
0.000000000000000000e+00,4.995080685787340810e-03,-9.794344790361215303e+00
0.000000000000000000e+00,4.967228994709807326e-03,-9.794344790345423490e+00
0.000000000000000000e+00,4.939523505669406872e-03,-9.794344790329800432e+00
0.000000000000000000e+00,4.911963451206984195e-03,-9.794344790314346128e+00
0.000000000000000000e+00,4.884548067891960124e-03,-9.794344790299053471e+00
0.000000000000000000e+00,4.857276596301295449e-03,-9.794344790283927793e+00
0.000000000000000000e+00,4.830148280998343771e-03,-9.794344790268963763e+00
0.000000000000000000e+00,4.803162370512049570e-03,-9.794344790254159605e+00
0.000000000000000000e+00,4.776318117315995343e-03,-9.794344790239513543e+00
0.000000000000000000e+00,4.749614777807772276e-03,-9.794344790225027353e+00
0.000000000000000000e+00,4.723051612288373460e-03,-9.794344790210692153e+00
0.000000000000000000e+00,4.696627884941687731e-03,-9.794344790196513273e+00
0.000000000000000000e+00,4.670342863814137477e-03,-9.794344790182488936e+00
0.000000000000000000e+00,4.644195820794404066e-03,-9.794344790168613812e+00
0.000000000000000000e+00,4.618186031593220914e-03,-9.794344790154887903e+00
0.000000000000000000e+00,4.592312775723360850e-03,-9.794344790141304102e+00
0.000000000000000000e+00,4.566575336479643428e-03,-9.794344790127871292e+00
0.000000000000000000e+00,4.540973000919097495e-03,-9.794344790114582366e+00
0.000000000000000000e+00,4.515505059841224376e-03,-9.794344790101431997e+00
0.000000000000000000e+00,4.490170807768301825e-03,-9.794344790088430841e+00
0.000000000000000000e+00,4.464969542925894402e-03,-9.794344790075562912e+00
0.000000000000000000e+00,4.439900567223396821e-03,-9.794344790062837092e+00
0.000000000000000000e+00,4.414963186234668359e-03,-9.794344790050248051e+00
0.000000000000000000e+00,4.390156709178852888e-03,-9.794344790037788684e+00
0.000000000000000000e+00,4.365480448901227530e-03,-9.794344790025469649e+00
0.000000000000000000e+00,4.340933721854133703e-03,-9.794344790013278512e+00
0.000000000000000000e+00,4.316515848078042623e-03,-9.794344790001220602e+00
0.000000000000000000e+00,4.292226151182778650e-03,-9.794344789989292366e+00
0.000000000000000000e+00,4.268063958328714887e-03,-9.794344789977493804e+00
0.000000000000000000e+00,4.244028600208161334e-03,-9.794344789965817810e+00
0.000000000000000000e+00,4.220119411026839774e-03,-9.794344789954271491e+00
0.000000000000000000e+00,4.196335728485469686e-03,-9.794344789942847740e+00
0.000000000000000000e+00,4.172676893761338539e-03,-9.794344789931546558e+00
0.000000000000000000e+00,4.149142251490075053e-03,-9.794344789920367944e+00
0.000000000000000000e+00,4.125731149747548232e-03,-9.794344789909310123e+00
0.000000000000000000e+00,4.102442940031764650e-03,-9.794344789898371317e+00
0.000000000000000000e+00,4.079276977244921006e-03,-9.794344789887547975e+00
0.000000000000000000e+00,4.056232619675536472e-03,-9.794344789876843649e+00
0.000000000000000000e+00,4.033309228980670041e-03,-9.794344789866254786e+00
0.000000000000000000e+00,4.010506170168228954e-03,-9.794344789855777833e+00
0.000000000000000000e+00,3.987822811579421096e-03,-9.794344789845414567e+00
0.000000000000000000e+00,3.965258524871157104e-03,-9.794344789835163212e+00
0.000000000000000000e+00,3.942812684998770779e-03,-9.794344789825023767e+00
0.000000000000000000e+00,3.920484670198638895e-03,-9.794344789814990904e+00
0.000000000000000000e+00,3.898273861970934142e-03,-9.794344789805068174e+00
0.000000000000000000e+00,3.876179645062552848e-03,-9.794344789795252026e+00
0.000000000000000000e+00,3.854201407450026651e-03,-9.794344789785542460e+00
0.000000000000000000e+00,3.832338540322574681e-03,-9.794344789775939475e+00
0.000000000000000000e+00,3.810590438065303200e-03,-9.794344789766434189e+00
0.000000000000000000e+00,3.788956498242311132e-03,-9.794344789757037262e+00
0.000000000000000000e+00,3.767436121580099596e-03,-9.794344789747738034e+00
0.000000000000000000e+00,3.746028711950919864e-03,-9.794344789738543611e+00
0.000000000000000000e+00,3.724733676356310839e-03,-9.794344789729445111e+00
0.000000000000000000e+00,3.703550424910649532e-03,-9.794344789720442535e+00
0.000000000000000000e+00,3.682478370824783086e-03,-9.794344789711539434e+00
0.000000000000000000e+00,3.661516930389746658e-03,-9.794344789702732257e+00
0.000000000000000000e+00,3.640665522960691205e-03,-9.794344789694021003e+00
0.000000000000000000e+00,3.619923570940772242e-03,-9.794344789685405672e+00
0.000000000000000000e+00,3.599290499765095842e-03,-9.794344789676879159e+00
0.000000000000000000e+00,3.578765737884849821e-03,-9.794344789668448570e+00
0.000000000000000000e+00,3.558348716751420174e-03,-9.794344789660106798e+00
0.000000000000000000e+00,3.538038870800726526e-03,-9.794344789651855621e+00
0.000000000000000000e+00,3.517835637437470835e-03,-9.794344789643695037e+00
0.000000000000000000e+00,3.497738457019592545e-03,-9.794344789635621495e+00
0.000000000000000000e+00,3.477746772842763619e-03,-9.794344789627634995e+00
0.000000000000000000e+00,3.457860031125019329e-03,-9.794344789619735536e+00
0.000000000000000000e+00,3.438077680991316176e-03,-9.794344789611923119e+00
0.000000000000000000e+00,3.418399174458312297e-03,-9.794344789604192414e+00
0.000000000000000000e+00,3.398823966419199476e-03,-9.794344789596543421e+00
0.000000000000000000e+00,3.379351514628632300e-03,-9.794344789588985023e+00
0.000000000000000000e+00,3.359981279687652977e-03,-9.794344789581501232e+00
0.000000000000000000e+00,3.340712725028793535e-03,-9.794344789574100929e+00
0.000000000000000000e+00,3.321545316901199259e-03,-9.794344789566782339e+00
0.000000000000000000e+00,3.302478524355823702e-03,-9.794344789559543685e+00
0.000000000000000000e+00,3.283511819230720396e-03,-9.794344789552379638e+00
0.000000000000000000e+00,3.264644676136435174e-03,-9.794344789545297303e+00
0.000000000000000000e+00,3.245876572441435803e-03,-9.794344789538289575e+00
0.000000000000000000e+00,3.227206988257665197e-03,-9.794344789531358231e+00
0.000000000000000000e+00,3.208635406426076867e-03,-9.794344789524501493e+00
0.000000000000000000e+00,3.190161312502412787e-03,-9.794344789517717587e+00
0.000000000000000000e+00,3.171784194742809527e-03,-9.794344789511008287e+00
0.000000000000000000e+00,3.153503544089777781e-03,-9.794344789504371818e+00
0.000000000000000000e+00,3.135318854157981977e-03,-9.794344789497808179e+00
0.000000000000000000e+00,3.117229621220285289e-03,-9.794344789491317371e+00
0.000000000000000000e+00,3.099235344193737411e-03,-9.794344789484897618e+00
0.000000000000000000e+00,3.081335524625745774e-03,-9.794344789478545366e+00
0.000000000000000000e+00,3.063529666680270182e-03,-9.794344789472262391e+00
0.000000000000000000e+00,3.045817277124053014e-03,-9.794344789466045142e+00
0.000000000000000000e+00,3.028197865312945696e-03,-9.794344789459900724e+00
0.000000000000000000e+00,3.010670943178359645e-03,-9.794344789453818478e+00
0.000000000000000000e+00,2.993236025213687288e-03,-9.794344789447805510e+00
0.000000000000000000e+00,2.975892628460935149e-03,-9.794344789441856491e+00
0.000000000000000000e+00,2.958640272497315739e-03,-9.794344789435974974e+00
0.000000000000000000e+00,2.941478479421887147e-03,-9.794344789430152076e+00
0.000000000000000000e+00,2.924406773842377384e-03,-9.794344789424394904e+00
0.000000000000000000e+00,2.907424682861995714e-03,-9.794344789418701680e+00
0.000000000000000000e+00,2.890531736066361511e-03,-9.794344789413070629e+00
0.000000000000000000e+00,2.873727465510364162e-03,-9.794344789407499974e+00
0.000000000000000000e+00,2.857011405705359077e-03,-9.794344789401987939e+00
0.000000000000000000e+00,2.840383093606134272e-03,-9.794344789396539852e+00
0.000000000000000000e+00,2.823842068598163627e-03,-9.794344789391148609e+00
0.000000000000000000e+00,2.807387872484838013e-03,-9.794344789385814209e+00
0.000000000000000000e+00,2.791020049474782737e-03,-9.794344789380543759e+00
0.000000000000000000e+00,2.774738146169192753e-03,-9.794344789375326599e+00
0.000000000000000000e+00,2.758541711549242909e-03,-9.794344789370166282e+00
0.000000000000000000e+00,2.742430296963685975e-03,-9.794344789365062809e+00
0.000000000000000000e+00,2.726403456116402533e-03,-9.794344789360016179e+00
0.000000000000000000e+00,2.710460745053999438e-03,-9.794344789355022840e+00
0.000000000000000000e+00,2.694601722153538385e-03,-9.794344789350086344e+00
0.000000000000000000e+00,2.678825948110291361e-03,-9.794344789345201363e+00
0.000000000000000000e+00,2.663132985925565927e-03,-9.794344789340371449e+00
0.000000000000000000e+00,2.647522400894591638e-03,-9.794344789335593049e+00
0.000000000000000000e+00,2.631993760594511858e-03,-9.794344789330869716e+00
0.000000000000000000e+00,2.616546634872377736e-03,-9.794344789326196121e+00
0.000000000000000000e+00,2.601180595833264917e-03,-9.794344789321568712e+00
0.000000000000000000e+00,2.585895217828400230e-03,-9.794344789316999922e+00
0.000000000000000000e+00,2.570690077443389850e-03,-9.794344789312477317e+00
0.000000000000000000e+00,2.555564753486438793e-03,-9.794344789308004451e+00
0.000000000000000000e+00,2.540518826976722200e-03,-9.794344789303581322e+00
0.000000000000000000e+00,2.525551881132806487e-03,-9.794344789299206155e+00
0.000000000000000000e+00,2.510663501361036672e-03,-9.794344789294878950e+00
0.000000000000000000e+00,2.495853275244057281e-03,-9.794344789290597930e+00
0.000000000000000000e+00,2.481120792529460314e-03,-9.794344789286363095e+00
0.000000000000000000e+00,2.466465645118374669e-03,-9.794344789282176222e+00
0.000000000000000000e+00,2.451887427054168320e-03,-9.794344789278037311e+00
0.000000000000000000e+00,2.437385734511173917e-03,-9.794344789273941032e+00
0.000000000000000000e+00,2.422960165783564438e-03,-9.794344789269890938e+00
0.000000000000000000e+00,2.408610321274187206e-03,-9.794344789265883477e+00
0.000000000000000000e+00,2.394335803483445616e-03,-9.794344789261920425e+00
0.000000000000000000e+00,2.380136216998408969e-03,-9.794344789258003559e+00
0.000000000000000000e+00,2.366011168481763158e-03,-9.794344789254127548e+00
0.000000000000000000e+00,2.351960266660894482e-03,-9.794344789250294170e+00
0.000000000000000000e+00,2.337983122317171224e-03,-9.794344789246501648e+00
0.000000000000000000e+00,2.324079348275059128e-03,-9.794344789242755311e+00
0.000000000000000000e+00,2.310248559391433337e-03,-9.794344789239046278e+00
0.000000000000000000e+00,2.296490372544849994e-03,-9.794344789235378101e+00
0.000000000000000000e+00,2.282804406625045957e-03,-9.794344789231750781e+00
0.000000000000000000e+00,2.269190282522337912e-03,-9.794344789228162540e+00
0.000000000000000000e+00,2.255647623117056164e-03,-9.794344789224616932e+00
0.000000000000000000e+00,2.242176053269145843e-03,-9.794344789221106851e+00
0.000000000000000000e+00,2.228775199807834888e-03,-9.794344789217637626e+00
0.000000000000000000e+00,2.215444691521180169e-03,-9.794344789214205704e+00
0.000000000000000000e+00,2.202184159145853873e-03,-9.794344789210809310e+00
0.000000000000000000e+00,2.188993235356942024e-03,-9.794344789207451996e+00
0.000000000000000000e+00,2.175871554757679259e-03,-9.794344789204135537e+00
0.000000000000000000e+00,2.162818753869429501e-03,-9.794344789200849277e+00
0.000000000000000000e+00,2.149834471121547363e-03,-9.794344789197603873e+00
0.000000000000000000e+00,2.136918346841364894e-03,-9.794344789194392220e+00
0.000000000000000000e+00,2.124070023244255517e-03,-9.794344789191216094e+00
0.000000000000000000e+00,2.111289144423704467e-03,-9.794344789188075495e+00
0.000000000000000000e+00,2.098575356341490263e-03,-9.794344789184968647e+00
0.000000000000000000e+00,2.085928306817824967e-03,-9.794344789181900879e+00
0.000000000000000000e+00,2.073347645521590732e-03,-9.794344789178861532e+00
0.000000000000000000e+00,2.060833023960712950e-03,-9.794344789175857713e+00
0.000000000000000000e+00,2.048384095472427589e-03,-9.794344789172884091e+00
0.000000000000000000e+00,2.036000515213718092e-03,-9.794344789169947774e+00
0.000000000000000000e+00,2.023681940151787415e-03,-9.794344789167043430e+00
0.000000000000000000e+00,2.011428029054491886e-03,-9.794344789164169285e+00
0.000000000000000000e+00,1.999238442480902149e-03,-9.794344789161328890e+00
0.000000000000000000e+00,1.987112842771949096e-03,-9.794344789158516917e+00
0.000000000000000000e+00,1.975050894041043784e-03,-9.794344789155738695e+00
0.000000000000000000e+00,1.963052262164733785e-03,-9.794344789152990671e+00
0.000000000000000000e+00,1.951116614773503941e-03,-9.794344789150272845e+00
0.000000000000000000e+00,1.939243621242557830e-03,-9.794344789147583441e+00
0.000000000000000000e+00,1.927432952682639781e-03,-9.794344789144926011e+00
0.000000000000000000e+00,1.915684281930923882e-03,-9.794344789142297003e+00
0.000000000000000000e+00,1.903997283541973258e-03,-9.794344789139696417e+00
0.000000000000000000e+00,1.892371633778717555e-03,-9.794344789137126028e+00
0.000000000000000000e+00,1.880807010603441050e-03,-9.794344789134585838e+00
0.000000000000000000e+00,1.869303093668963538e-03,-9.794344789132072293e+00
0.000000000000000000e+00,1.857859564309681131e-03,-9.794344789129585394e+00
0.000000000000000000e+00,1.846476105532744759e-03,-9.794344789127128692e+00
0.000000000000000000e+00,1.835152402009330389e-03,-9.794344789124698636e+00
0.000000000000000000e+00,1.823888140065837256e-03,-9.794344789122293449e+00
0.000000000000000000e+00,1.812683007675222916e-03,-9.794344789119914907e+00
0.000000000000000000e+00,1.801536694448397941e-03,-9.794344789117564787e+00
0.000000000000000000e+00,1.790448891625639896e-03,-9.794344789115241312e+00
0.000000000000000000e+00,1.779419292067934257e-03,-9.794344789112942706e+00
0.000000000000000000e+00,1.768447590248557527e-03,-9.794344789110668970e+00
0.000000000000000000e+00,1.757533482244570591e-03,-9.794344789108423655e+00
0.000000000000000000e+00,1.746676665728452357e-03,-9.794344789106199656e+00
0.000000000000000000e+00,1.735876839959681148e-03,-9.794344789104002302e+00
0.000000000000000000e+00,1.725133705776403688e-03,-9.794344789101828042e+00
0.000000000000000000e+00,1.714446965587181938e-03,-9.794344789099680426e+00
0.000000000000000000e+00,1.703816323362720639e-03,-9.794344789097554127e+00
0.000000000000000000e+00,1.693241484627625200e-03,-9.794344789095454473e+00
0.000000000000000000e+00,1.682722156452358224e-03,-9.794344789093374359e+00
0.000000000000000000e+00,1.672258047445028626e-03,-9.794344789091320891e+00
0.000000000000000000e+00,1.661848867743329072e-03,-9.794344789089290515e+00
0.000000000000000000e+00,1.651494329006574901e-03,-9.794344789087279679e+00
0.000000000000000000e+00,1.641194144407648499e-03,-9.794344789085295488e+00
0.000000000000000000e+00,1.630948028625039958e-03,-9.794344789083332614e+00
0.000000000000000000e+00,1.620755697835014365e-03,-9.794344789081387503e+00
0.000000000000000000e+00,1.610616869703721627e-03,-9.794344789079467262e+00
0.000000000000000000e+00,1.600531263379341212e-03,-9.794344789077571889e+00
0.000000000000000000e+00,1.590498599484342895e-03,-9.794344789075694280e+00
0.000000000000000000e+00,1.580518600107767889e-03,-9.794344789073836210e+00
0.000000000000000000e+00,1.570590988797439507e-03,-9.794344789071999458e+00
0.000000000000000000e+00,1.560715490552418844e-03,-9.794344789070187574e+00
0.000000000000000000e+00,1.550891831815280923e-03,-9.794344789068393453e+00
0.000000000000000000e+00,1.541119740464632617e-03,-9.794344789066615320e+00
0.000000000000000000e+00,1.531398945807489840e-03,-9.794344789064862056e+00
0.000000000000000000e+00,1.521729178571838183e-03,-9.794344789063128331e+00
0.000000000000000000e+00,1.512110170899140429e-03,-9.794344789061410594e+00
0.000000000000000000e+00,1.502541656336926247e-03,-9.794344789059717726e+00
0.000000000000000000e+00,1.493023369831455614e-03,-9.794344789058037293e+00
0.000000000000000000e+00,1.483555047720319132e-03,-9.794344789056378175e+00
0.000000000000000000e+00,1.474136427725107959e-03,-9.794344789054740374e+00
0.000000000000000000e+00,1.464767248944246576e-03,-9.794344789053120337e+00
0.000000000000000000e+00,1.455447251845689389e-03,-9.794344789051518063e+00
0.000000000000000000e+00,1.446176178259777787e-03,-9.794344789049931777e+00
0.000000000000000000e+00,1.436953771372008514e-03,-9.794344789048366806e+00
0.000000000000000000e+00,1.427779775716037309e-03,-9.794344789046817823e+00
0.000000000000000000e+00,1.418653937166494770e-03,-9.794344789045286603e+00
0.000000000000000000e+00,1.409576002932032279e-03,-9.794344789043773147e+00
0.000000000000000000e+00,1.400545721548261246e-03,-9.794344789042275679e+00
0.000000000000000000e+00,1.391562842870824185e-03,-9.794344789040794197e+00
0.000000000000000000e+00,1.382627118068404650e-03,-9.794344789039332255e+00
0.000000000000000000e+00,1.373738299615897629e-03,-9.794344789037886301e+00
0.000000000000000000e+00,1.364896141287559117e-03,-9.794344789036452781e+00
0.000000000000000000e+00,1.356100398150125773e-03,-9.794344789035042353e+00
0.000000000000000000e+00,1.347350826556091346e-03,-9.794344789033644361e+00
0.000000000000000000e+00,1.338647184136899405e-03,-9.794344789032262355e+00
0.000000000000000000e+00,1.329989229796287422e-03,-9.794344789030894560e+00
0.000000000000000000e+00,1.321376723703579243e-03,-9.794344789029544529e+00
0.000000000000000000e+00,1.312809427287033948e-03,-9.794344789028206932e+00
0.000000000000000000e+00,1.304287103227232862e-03,-9.794344789026887099e+00
0.000000000000000000e+00,1.295809515450552663e-03,-9.794344789025581477e+00
0.000000000000000000e+00,1.287376429122536565e-03,-9.794344789024293618e+00
0.000000000000000000e+00,1.278987610641482784e-03,-9.794344789023014641e+00
0.000000000000000000e+00,1.270642827631965344e-03,-9.794344789021751652e+00
0.000000000000000000e+00,1.262341848938335152e-03,-9.794344789020506425e+00
0.000000000000000000e+00,1.254084444618338602e-03,-9.794344789019271857e+00
0.000000000000000000e+00,1.245870385936798845e-03,-9.794344789018056829e+00
0.000000000000000000e+00,1.237699445359214008e-03,-9.794344789016850683e+00
0.000000000000000000e+00,1.229571396545466868e-03,-9.794344789015660524e+00
0.000000000000000000e+00,1.221486014343585924e-03,-9.794344789014482799e+00
0.000000000000000000e+00,1.213443074783459837e-03,-9.794344789013319286e+00
0.000000000000000000e+00,1.205442355070698466e-03,-9.794344789012168206e+00
0.000000000000000000e+00,1.197483633580435350e-03,-9.794344789011031338e+00
0.000000000000000000e+00,1.189566689851178326e-03,-9.794344789009905128e+00
0.000000000000000000e+00,1.181691304578693334e-03,-9.794344789008796681e+00
0.000000000000000000e+00,1.173857259609925293e-03,-9.794344789007695340e+00
0.000000000000000000e+00,1.166064337936990533e-03,-9.794344789006608210e+00
0.000000000000000000e+00,1.158312323691153842e-03,-9.794344789005535290e+00
0.000000000000000000e+00,1.150601002136826317e-03,-9.794344789004473029e+00
0.000000000000000000e+00,1.142930159665629577e-03,-9.794344789003424978e+00
0.000000000000000000e+00,1.135299583790481005e-03,-9.794344789002387586e+00
0.000000000000000000e+00,1.127709063139732768e-03,-9.794344789001360851e+00
0.000000000000000000e+00,1.120158387451277663e-03,-9.794344789000350104e+00
0.000000000000000000e+00,1.112647347566711334e-03,-9.794344788999344686e+00
0.000000000000000000e+00,1.105175735425588824e-03,-9.794344788998353479e+00
0.000000000000000000e+00,1.097743344059635149e-03,-9.794344788997378259e+00
0.000000000000000000e+00,1.090349967587044997e-03,-9.794344788996410145e+00
0.000000000000000000e+00,1.082995401206685721e-03,-9.794344788995454465e+00
0.000000000000000000e+00,1.075679441192528433e-03,-9.794344788994507667e+00
0.000000000000000000e+00,1.068401884887965059e-03,-9.794344788993573303e+00
0.000000000000000000e+00,1.061162530700208431e-03,-9.794344788992647821e+00
0.000000000000000000e+00,1.053961178094673084e-03,-9.794344788991736550e+00
0.000000000000000000e+00,1.046797627589432381e-03,-9.794344788990834161e+00
0.000000000000000000e+00,1.039671680749737221e-03,-9.794344788989944206e+00
0.000000000000000000e+00,1.032583140182420471e-03,-9.794344788989061357e+00
0.000000000000000000e+00,1.025531809530547730e-03,-9.794344788988189165e+00
0.000000000000000000e+00,1.018517493467894401e-03,-9.794344788987329409e+00
0.000000000000000000e+00,1.011539997693572824e-03,-9.794344788986478534e+00
0.000000000000000000e+00,1.004599128926622533e-03,-9.794344788985636541e+00
0.000000000000000000e+00,9.976946949006950706e-04,-9.794344788984803429e+00
0.000000000000000000e+00,9.908265043587374896e-04,-9.794344788983980976e+00
0.000000000000000000e+00,9.839943670475869569e-04,-9.794344788983170957e+00
0.000000000000000000e+00,9.771980937128396574e-04,-9.794344788982366268e+00
0.000000000000000000e+00,9.704374960935197719e-04,-9.794344788981570460e+00
0.000000000000000000e+00,9.637123869168847399e-04,-9.794344788980787087e+00
0.000000000000000000e+00,9.570225798932607700e-04,-9.794344788980012595e+00
0.000000000000000000e+00,9.503678897108597040e-04,-9.794344788979246985e+00
0.000000000000000000e+00,9.437481320306740501e-04,-9.794344788978490257e+00
0.000000000000000000e+00,9.371631234813013276e-04,-9.794344788977742411e+00
0.000000000000000000e+00,9.306126816539327757e-04,-9.794344788977003446e+00
0.000000000000000000e+00,9.240966250973109463e-04,-9.794344788976269811e+00
0.000000000000000000e+00,9.176147733126122693e-04,-9.794344788975548610e+00
0.000000000000000000e+00,9.111669467485307384e-04,-9.794344788974834515e+00
0.000000000000000000e+00,9.047529667963227816e-04,-9.794344788974131077e+00
0.000000000000000000e+00,8.983726557847663717e-04,-9.794344788973432969e+00
0.000000000000000000e+00,8.920258369753183286e-04,-9.794344788972745519e+00
0.000000000000000000e+00,8.857123345571724180e-04,-9.794344788972063398e+00
0.000000000000000000e+00,8.794319736423737190e-04,-9.794344788971390159e+00
