ref_gyro_x (deg/s),ref_gyro_y (deg/s),ref_gyro_z (deg/s)
3.543207813446885412e-03,0.000000000000000000e+00,2.842648555953430356e-01
3.543207808996126206e-03,-2.673424424822243549e-07,5.707437531579505618e-01
3.543207773420449687e-03,-7.118452737687193683e-07,8.572226507092863823e-01
3.543207653506490716e-03,-1.333508483595055029e-06,1.143701548240938282e+00
3.543207369466827832e-03,-2.132332039905898953e-06,1.430180445744494655e+00
3.543206814940003200e-03,-3.108315868891853189e-06,1.716659343211542899e+00
3.543205856990536921e-03,-4.261459828382779432e-06,2.003138240633671519e+00
3.543204336108991218e-03,-5.591763674597633967e-06,2.289617138002467467e+00
3.543202066212046333e-03,-7.099227022250827334e-06,2.576096035309519916e+00
3.543198834642642767e-03,-8.783849298015167367e-06,2.862574932546416928e+00
3.543194402170190323e-03,-1.064562968734141864e-05,3.149053829704745677e+00
3.543188502990835681e-03,-1.268456707463458550e-05,3.435532726776096002e+00
3.543180844727878732e-03,-1.490065997678706385e-05,3.722011623752054632e+00
3.543171108432280857e-03,-1.729390647006881179e-05,4.008490520624212294e+00
3.543158948583344930e-03,-1.986430411037481674e-05,4.294969417384155719e+00
3.543143993089571848e-03,-2.261184984683006248e-05,4.581448314023474744e+00
3.543125843289739955e-03,-2.553653992875261100e-05,4.867927210533760096e+00
3.543104073954213458e-03,-2.863836980597492788e-05,5.154406106906599838e+00
3.543078233286544882e-03,-3.191733402252444228e-05,5.440885003133585585e+00
3.543047842925390201e-03,-3.537342610366376840e-05,5.727363899206308062e+00
3.543012397946777858e-03,-3.900663843629159139e-05,6.013842795116357998e+00
3.542971366866781106e-03,-4.281696214270520011e-05,6.300321690855331447e+00
3.542924191644628799e-03,-4.680438694772584931e-05,6.586800586414819136e+00
3.542870287686317090e-03,-5.096890103918849625e-05,6.873279481786418010e+00
3.542809043848735902e-03,-5.531049092179727027e-05,7.159758376961722348e+00
3.542739822444417735e-03,-5.982914126434888449e-05,7.446237271932332646e+00
3.542661959246897526e-03,-6.452483474032576498e-05,7.732716166689848514e+00
3.542574763496793722e-03,-6.939755186186160111e-05,8.019195061225870447e+00
3.542477517908635722e-03,-7.444727080708200048e-05,8.305673955532004271e+00
3.542369478678507062e-03,-7.967396724082307421e-05,8.592152849599855813e+00
3.542249875492579827e-03,-8.507761412873184883e-05,8.878631743421033562e+00
3.542117911536581901e-03,-9.065818154475202171e-05,9.165110636987151338e+00
3.541972763506283373e-03,-9.641563647199922745e-05,9.451589530289822960e+00
3.541813581619061499e-03,-1.023499425970310464e-04,9.738068423320672906e+00
3.541639489626623605e-03,-1.084610600975163499e-04,1.002454731607132210e+01
3.541449584828956863e-03,-1.147489454233102972e-04,1.031102620853339857e+01
3.541242938089575638e-03,-1.212135510709405818e-04,1.059750510069853746e+01
3.541018593852174844e-03,-1.278548253515128551e-04,1.088398399255837745e+01
3.540775570158713557e-03,-1.346727121520411284e-04,1.117046288410456434e+01
3.540512858669078548e-03,-1.416671506902135327e-04,1.145694177532874747e+01
3.540229424682367169e-03,-1.488380752626003380e-04,1.174342066622258862e+01
3.539924207159891520e-03,-1.561854149863146630e-04,1.202989955677775136e+01
3.539596118750003208e-03,-1.637090935341364373e-04,1.231637844698590811e+01
3.539244045814812431e-03,-1.714090288631101966e-04,1.260285733683874732e+01
3.538866848458914558e-03,-1.792851329366292360e-04,1.288933622632795561e+01
3.538463360560214002e-03,-1.873373114400190501e-04,1.317581511544523742e+01
3.538032389802936439e-03,-1.955654634896332315e-04,1.346229400418230782e+01
3.537572717712947779e-03,-2.039694813354778213e-04,1.374877289253088719e+01
3.537083099695463584e-03,-2.125492500573787755e-04,1.403525178048271371e+01
3.536562265075279474e-03,-2.213046472547109767e-04,1.432173066802953798e+01
3.536008917139605787e-03,-2.302355427297053008e-04,1.460820955516312480e+01
3.535421733183632693e-03,-2.393417981643543367e-04,1.489468844187524965e+01
3.534799364558937219e-03,-2.486232667909361936e-04,1.518116732815770753e+01
3.534140436724831930e-03,-2.580797930561793004e-04,1.546764621400231121e+01
3.533443549302799254e-03,-2.677112122790903143e-04,1.575412509940088945e+01
3.532707276134103378e-03,-2.775173503024701022e-04,1.604060398434528878e+01
3.531930165340719380e-03,-2.874980231381437626e-04,1.632708286882737170e+01
3.531110739389690598e-03,-2.976530366059317099e-04,1.661356175283902914e+01
3.530247495161053465e-03,-3.079821859663914763e-04,1.690004063637217513e+01
3.529338904019440823e-03,-3.184852555473595566e-04,1.718651951941873790e+01
3.528383411889508998e-03,-3.291620183643271798e-04,1.747299840197068121e+01
3.527379439335304005e-03,-3.400122357346820967e-04,1.775947728401997594e+01
3.526325381643725596e-03,-3.510356568858539550e-04,1.804595616555864268e+01
3.525219608912192378e-03,-3.622320185573989280e-04,1.833243504657871270e+01
3.524060466140672369e-03,-3.736010445970639328e-04,1.861891392707225990e+01
3.522846273328210376e-03,-3.851424455508726109e-04,1.890539280703137948e+01
3.521575325574081029e-03,-3.968559182472743813e-04,1.919187168644820574e+01
3.520245893183739615e-03,-4.087411453754038896e-04,1.947835056531490494e+01
3.518856221779688258e-03,-4.207977950574980173e-04,1.976482944362367178e+01
3.517404532417418763e-03,-4.330255204155188066e-04,2.005130832136675778e+01
3.515889021706574812e-03,-4.454239591320362929e-04,2.033778719853643224e+01
3.514307861937502643e-03,-4.579927330054255107e-04,2.062426607512501420e+01
3.512659201213313379e-03,-4.707314474994326952e-04,2.091074495112487241e+01
3.510941163587628748e-03,-4.836396912871710157e-04,2.119722382652840409e+01
3.509151849208184092e-03,-4.967170357896093756e-04,2.148370270132806681e+01
3.507289334466403164e-03,-5.099630347086149930e-04,2.177018157551636079e+01
3.505351672153146809e-03,-5.233772235546200200e-04,2.205666044908583601e+01
3.503336891620772130e-03,-5.369591191689807204e-04,2.234313932202909214e+01
3.501242998951679519e-03,-5.507082192411028249e-04,2.262961819433878929e+01
3.499067977133493278e-03,-5.646240018204057038e-04,2.291609706600764085e+01
3.496809786241071409e-03,-5.787059248232081371e-04,2.320257593702841703e+01
3.494466363625475976e-03,-5.929534255346143945e-04,2.348905480739394847e+01
3.492035624110113087e-03,-6.073659201054862778e-04,2.377553367709713683e+01
3.489515460194167820e-03,-6.219428030445863431e-04,2.406201254613093710e+01
3.486903742263551802e-03,-6.366834467059895569e-04,2.434849141448838239e+01
3.484198318809500483e-03,-6.515872007718508802e-04,2.463497028216256624e+01
3.481397016655017433e-03,-6.666533917306299373e-04,2.492144914914667098e+01
3.478497641189317452e-03,-6.818813223508750094e-04,2.520792801543393225e+01
3.475497976610483590e-03,-6.972702711506687011e-04,2.549440688101767805e+01
3.472395786176459085e-03,-7.128194918628432677e-04,2.578088574589131809e+01
3.469188812464621841e-03,-7.285282128960838882e-04,2.606736461004834027e+01
3.465874777640050308e-03,-7.443956367920252695e-04,2.635384347348231415e+01
3.462451383732719715e-03,-7.604209396784721194e-04,2.664032233618690881e+01
3.458916312923771344e-03,-7.766032707188602570e-04,2.692680119815587858e+01
3.455267227841056499e-03,-7.929417515580862962e-04,2.721328005938307371e+01
3.451501771864129518e-03,-8.094354757648430541e-04,2.749975891986244037e+01
3.447617569438878038e-03,-8.260835082705906803e-04,2.778623777958803487e+01
3.443612226401972232e-03,-8.428848848053070546e-04,2.807271663855400945e+01
3.439483330315308649e-03,-8.598386113301587259e-04,2.835919549675461226e+01
3.435228450810652936e-03,-8.769436634672465652e-04,2.864567435418423003e+01
3.430845139944650561e-03,-8.941989859265735835e-04,2.893215321083733826e+01
3.426330932564385524e-03,-9.116034919303964623e-04,2.921863206670854041e+01
3.421683346683698258e-03,-9.291560626351225583e-04,2.950511092179256067e+01
3.416899883870416679e-03,-9.468555465509163145e-04,2.979158977608425118e+01
3.411978029644708536e-03,-9.647007589591950543e-04,3.007806862957857419e+01
3.406915253888727260e-03,-9.826904813281787422e-04,3.036454748227064471e+01
3.401709011267745140e-03,-1.000823460726688648e-03,3.065102633415569855e+01
3.396356741662946883e-03,-1.019098409236368716e-03,3.093750518522911008e+01
3.390855870616081742e-03,-1.037514003362533790e-03,3.122398403548640999e+01
3.385203809786144647e-03,-1.056068883443828143e-03,3.151046288492326042e+01
3.379397957418277601e-03,-1.074761653060909636e-03,3.179694173353547626e+01
3.373435698825070876e-03,-1.093590878444356939e-03,3.208342058131903940e+01
3.367314406880445726e-03,-1.112555087882014697e-03,3.236989942827006672e+01
3.361031442526293822e-03,-1.131652771125997827e-03,3.265637827438484919e+01
3.354584155292062494e-03,-1.150882378799575464e-03,3.294285711965986962e+01
3.347969883827453617e-03,-1.170242321804161167e-03,3.319294262114342331e+01
3.341193447195444418e-03,-1.189709748136201159e-03,3.340142198697057552e+01
3.334261240605547894e-03,-1.209258907834937597e-03,3.357235159095890253e+01
3.327179359848802219e-03,-1.228866577567225716e-03,3.370940094442595836e+01
3.319953620996765348e-03,-1.248511821730313243e-03,3.381588954768355393e+01
3.312589577870531272e-03,-1.268175775982774856e-03,3.389482023138810973e+01
3.305092537710818939e-03,-1.287841451124563776e-03,3.394890932209089129e+01
3.297467575384383908e-03,-1.307493555435787057e-03,3.398061393448516299e+01
3.289719546386759164e-03,-1.327118333756026466e-03,3.399215666403466685e+01
3.281853098842474076e-03,-1.346703421743051599e-03,3.398554792759877330e+01
3.273872684658019668e-03,-1.366237713892913498e-03,3.396260617608449195e+01
3.265782569947272163e-03,-1.385711244033736118e-03,3.392497618181624119e+01
3.257586844821708932e-03,-1.405115077124231447e-03,3.387414558400789844e+01
3.249289432616713109e-03,-1.424441211295929136e-03,3.381145985825425271e+01
3.240894098609311495e-03,-1.443682489176352805e-03,3.373813586015510424e+01
3.232404458270608013e-03,-1.462832517619684159e-03,3.365527407888691869e+01
3.223823985087169615e-03,-1.481885595052664971e-03,3.356386972360058962e+01
3.215156017978880801e-03,-1.500836645717244832e-03,3.346482275381940497e+01
3.206403768335955220e-03,-1.519681160158533077e-03,3.335894695442201652e+01
3.197570326694157677e-03,-1.538415141367475893e-03,3.324697814621447378e+01
3.188658669064853030e-03,-1.557035056042969110e-03,3.312958161442705318e+01
3.179671662934646214e-03,-1.575537790488296249e-03,3.300735882962922574e+01
3.170612072948208408e-03,-1.593920610702330909e-03,3.288085352846044884e+01
3.161482566287033072e-03,-1.612181126267271235e-03,3.275055721515481366e+01
3.152285717756308711e-03,-1.630317257672165340e-03,3.261691413902948966e+01
3.143024014591739180e-03,-1.648327206745514584e-03,3.248032579785171947e+01
3.133699860997881705e-03,-1.666209429901056903e-03,3.234115501224493983e+01
3.124315582429380671e-03,-1.683962613928827266e-03,3.219972961199283645e+01
3.114873429626349461e-03,-1.701585654088928019e-03,3.205634577120845563e+01
3.105375582414987828e-03,-1.719077634288426314e-03,3.191127102581413411e+01
3.095824153284377437e-03,-1.736437809142615286e-03,3.176474700359266023e+01
3.086221190750249033e-03,-1.753665587740768552e-03,3.161699189418733624e+01
3.076568682516295661e-03,-1.770760518953568832e-03,3.146820268382104757e+01
3.066868558443403003e-03,-1.787722278134930287e-03,3.131855717714525511e+01
3.057122693336934965e-03,-1.804550655084916034e-03,3.116821582649474465e+01
3.047332909561916488e-03,-1.821245543153174763e-03,3.101732338689316393e+01
3.037500979495675810e-03,-1.837806929373820728e-03,3.086601041340660245e+01
3.027628627827206546e-03,-1.854234885533078249e-03,3.071439461586180641e+01
3.017717533712153521e-03,-1.870529560080462592e-03,3.056258208451521341e+01
3.007769332792018316e-03,-1.886691170802764963e-03,3.041066839896485519e+01
2.997785619085793687e-03,-1.902719998187868715e-03,3.025873963142633727e+01
2.987767946761910303e-03,-1.918616379412378409e-03,3.010687325443504747e+01
2.977717831797989378e-03,-1.934380702893380736e-03,2.995513896207786786e+01
2.967636753535575576e-03,-1.950013403350383699e-03,2.980359941299096604e+01
2.957526156136609536e-03,-1.965514957328621561e-03,2.965231090257557511e+01
2.947387449948107949e-03,-1.980885879139643400e-03,2.950132397117375049e+01
2.937222012781120096e-03,-1.996126717179286855e-03,2.935068395430415222e+01
2.927031191109742692e-03,-2.011238050587002731e-03,2.920043148047658121e+01
2.916816301195584125e-03,-2.026220486213943690e-03,2.905060292157862634e+01
2.906578630142812002e-03,-2.041074655870356649e-03,2.890123080035195002e+01
2.896319436888576161e-03,-2.055801213825668872e-03,2.875234415904546736e+01
2.886039953133310524e-03,-2.070400834537186770e-03,2.860396889294354850e+01
2.875741384215138238e-03,-2.084874210585683889e-03,2.845612805211477792e+01
2.865424909932334438e-03,-2.099222050798194190e-03,2.830884211440852383e+01
2.855091685317541570e-03,-2.113445078540264390e-03,2.816212923243790911e+01
2.844742841367190259e-03,-2.127544030161605294e-03,2.801600545702716261e+01
2.834379485729338413e-03,-2.141519653580614690e-03,2.787048493936505267e+01
2.824002703352949169e-03,-2.155372706994686770e-03,2.772558011389286037e+01
2.813613557101371510e-03,-2.169103957704427398e-03,2.758130186376188675e+01
2.803213088332649934e-03,-2.182714181041075889e-03,2.743765967052089394e+01
2.792802317449060573e-03,-2.196204159387447463e-03,2.729466174953556745e+01
2.782382244418130611e-03,-2.209574681283649894e-03,2.715231517249914006e+01
2.771953849267201012e-03,-2.222826540609653626e-03,2.701062597826378564e+01
2.761518092553486275e-03,-2.235960535837579113e-03,2.686959927310529750e+01
2.751075915811399767e-03,-2.248977469347232180e-03,2.672923932142758119e+01
2.740628241978809113e-03,-2.261878146799040524e-03,2.658954962781766085e+01
2.730175975803745148e-03,-2.274663376559120376e-03,2.645053301127503076e+01
2.719720004232996022e-03,-2.287333969171691586e-03,2.631219167236093881e+01
2.709261196783869282e-03,-2.299890736874523386e-03,2.617452725394191759e+01
2.698800405900358360e-03,-2.312334493153510740e-03,2.603754089613781275e+01
2.688338467294809804e-03,-2.324666052332847663e-03,2.590123328602640029e+01
2.677876200276127754e-03,-2.336886229197601694e-03,2.576560470260404401e+01
2.667414408065471067e-03,-2.348995838645811639e-03,2.563065505745434081e+01
2.656953878100302632e-03,-2.360995695367473519e-03,2.549638393153358962e+01
2.646495382327622697e-03,-2.372886613548082398e-03,2.536279060844306343e+01
2.636039677487100451e-03,-2.384669406594550848e-03,2.522987410452269330e+01
2.625587505384814266e-03,-2.396344886881596279e-03,2.509763319606902243e+01
2.615139593158215953e-03,-2.407913865516839863e-03,2.496606644395141572e+01
2.604696653532903236e-03,-2.419377152123004630e-03,2.483517221587432644e+01
2.594259385071737752e-03,-2.430735554635805006e-03,2.470494870650992070e+01
2.583828472416788667e-03,-2.441989879116198987e-03,2.457539395570399776e+01
2.573404586524574624e-03,-2.453140929575842004e-03,2.444650586493868261e+01
2.562988384894991298e-03,-2.464189507814641775e-03,2.431828221221803688e+01
2.552580511794334817e-03,-2.475136413269482180e-03,2.419072066552689293e+01
2.542181598472748483e-03,-2.485982442873186336e-03,2.406381879499875609e+01
2.531792263376436702e-03,-2.496728390922967750e-03,2.393757408391587660e+01
2.521413112354920199e-03,-2.507375048957594544e-03,2.381198393865273388e+01
2.511044738863627869e-03,-2.517923205642644009e-03,2.368704569766362056e+01
2.500687724162062048e-03,-2.528373646663218191e-03,2.356275663960542488e+01
2.490342637507772256e-03,-2.538727154623600119e-03,2.343911399067806656e+01
2.480010036346346012e-03,-2.548984508953326331e-03,2.331611493125704726e+01
2.469690466497620127e-03,-2.559146485819233791e-03,2.319375660188574884e+01
2.459384462338284633e-03,-2.569213858043085680e-03,2.307203610868833366e+01
2.449092546981047197e-03,-2.579187395024357121e-03,2.295095052825863746e+01
2.438815232450501982e-03,-2.589067862667878556e-03,2.283049691207486731e+01
2.428553019855869514e-03,-2.598856023316001122e-03,2.271067229048544434e+01
2.418306399560695135e-03,-2.608552635684995621e-03,2.259147367630680847e+01
2.408075851349666518e-03,-2.618158454805429199e-03,2.247289806807018309e+01
2.397861844592625701e-03,-2.627674231966269959e-03,2.235494245295085847e+01
2.387664838405907479e-03,-2.637100714662507853e-03,2.223760380941018155e+01
2.377485281811069634e-03,-2.646438646546081953e-03,2.212087910957770731e+01
2.367323613891129507e-03,-2.655688767379926329e-03,2.200476532139833097e+01
2.357180263944352438e-03,-2.664851812994957145e-03,2.188925941056675839e+01
2.347055651635705700e-03,-2.673928515249861335e-03,2.177435834226970357e+01
2.336950187146020867e-03,-2.682919601993520326e-03,2.166005908275406355e+01
2.326864271318925762e-03,-2.691825797029933059e-03,2.154635860073778986e+01
2.316798295805631847e-03,-2.700647820085531198e-03,2.143325386867841331e+01
2.306752643207602652e-03,-2.709386386778752515e-03,2.132074186391287540e+01
2.296727687217170466e-03,-2.718042208591765329e-03,2.120881956968089099e+01
2.286723792756154613e-03,-2.726615992844259873e-03,2.109748397604305836e+01
2.276741316112506058e-03,-2.735108442669187314e-03,2.098673208070375296e+01
2.266780605075042511e-03,-2.743520256990377489e-03,2.087656088974787139e+01
2.256841999066302659e-03,-2.751852130501950770e-03,2.076696741829975323e+01
2.246925829273556819e-03,-2.760104753649443403e-03,2.065794869111166676e+01
2.237032418778013912e-03,-2.768278812612570867e-03,2.054950174308864419e+01
2.227162082682254251e-03,-2.776374989289575896e-03,2.044162361975572395e+01
2.217315128235918930e-03,-2.784393961283076601e-03,2.033431137767323804e+01
2.207491854959688776e-03,-2.792336401887376973e-03,2.022756208480494422e+01
2.197692554767586258e-03,-2.800202980077168627e-03,2.012137282084373169e+01
2.187917512087607722e-03,-2.807994360497571319e-03,2.001574067749886154e+01
2.178167003980736698e-03,-2.815711203455467573e-03,1.991066275874844749e+01
2.168441300258346516e-03,-2.823354164912080660e-03,1.980613618106061580e+01
2.158740663598024759e-03,-2.830923896476748684e-03,1.970215807358624716e+01
2.149065349657829950e-03,-2.838421045401849641e-03,1.959872557832611051e+01
2.139415607189019530e-03,-2.845846254578844083e-03,1.949583585027489718e+01
2.129791678147256468e-03,-2.853200162535384637e-03,1.939348605754434018e+01
2.120193797802323588e-03,-2.860483403433465056e-03,1.929167338146740462e+01
2.110622194846355996e-03,-2.867696607068560225e-03,1.919039501668553882e+01
2.101077091500620254e-03,-2.874840398869740223e-03,1.908964817122049240e+01
2.091558703620852860e-03,-2.881915399900705950e-03,1.898943006653226817e+01
2.082067240801182325e-03,-2.888922226861725517e-03,1.888973793756456843e+01
2.072602906476643959e-03,-2.895861492092439721e-03,1.879056903277894719e+01
2.063165898024306444e-03,-2.902733803575502369e-03,1.869192061417881590e+01
2.053756406863040986e-03,-2.909539764941035042e-03,1.859378995732421203e+01
2.044374618551922200e-03,-2.916279975471856422e-03,1.849617435133839294e+01
2.035020712887304108e-03,-2.922955030109470990e-03,1.839907109890693704e+01
2.025694863998576435e-03,-2.929565519460791082e-03,1.830247751627016584e+01
2.016397240442602528e-03,-2.936112029805548924e-03,1.820639093320955126e+01
2.007128005296888746e-03,-2.942595143104409939e-03,1.811080869302870155e+01
1.997887316251455853e-03,-2.949015437007725289e-03,1.801572815252951187e+01
1.988675325699471811e-03,-2.955373484864929744e-03,1.792114668198390603e+01
1.979492180826624304e-03,-2.961669855734547566e-03,1.782706166510172707e+01
1.970338023699272877e-03,-2.967905114394791665e-03,1.773347049899506800e+01
1.961212991351374627e-03,-2.974079821354730455e-03,1.764037059413949038e+01
1.952117215870218360e-03,-2.980194532866016748e-03,1.754775937433245048e+01
1.943050824480961570e-03,-2.986249800935131000e-03,1.745563427664920297e+01
1.934013939629996258e-03,-2.992246173336150609e-03,1.736399275139648424e+01
1.925006679067154227e-03,-2.998184193624011014e-03,1.727283226206419542e+01
1.916029155926763771e-03,-3.004064401148242528e-03,1.718215028527536248e+01
1.907081478807567303e-03,-3.009887331067157782e-03,1.709194431073450815e+01
1.898163751851530273e-03,-3.015653514362503628e-03,1.700221184117462769e+01
1.889276074821522955e-03,-3.021363477854514205e-03,1.691295039230298514e+01
1.880418543177926919e-03,-3.027017744217389440e-03,1.682415749274585082e+01
1.871591248154143424e-03,-3.032616831995165168e-03,1.673583068399226192e+01
1.862794276831037776e-03,-3.038161255617956649e-03,1.664796752033700145e+01
1.854027712210330921e-03,-3.043651525418576784e-03,1.656056556882289499e+01
1.845291633286935684e-03,-3.049088147649499109e-03,1.647362240918245391e+01
1.836586115120269298e-03,-3.054471624500152121e-03,1.638713563377907789e+01
1.827911228904541795e-03,-3.059802454114548403e-03,1.630110284754774952e+01
1.819267042038036309e-03,-3.065081130609211262e-03,1.621552166793541971e+01
1.810653618191394735e-03,-3.070308144091406666e-03,1.613038972484108768e+01
1.802071017374916751e-03,-3.075483980677655351e-03,1.604570466055563926e+01
1.793519296004886764e-03,-3.080609122512515102e-03,1.596146412970154138e+01
1.784998506968940883e-03,-3.085684047787627150e-03,1.587766579917231624e+01
1.776508699690488051e-03,-3.090709230761006301e-03,1.579430734807204040e+01
1.768049920192184222e-03,-3.095685141776573918e-03,1.571138646765470881e+01
1.759622211158490832e-03,-3.100612247283906879e-03,1.562890086126361666e+01
1.751225611997310819e-03,-3.105491009858213792e-03,1.554684824427076961e+01
1.742860158900722814e-03,-3.110321888220505052e-03,1.546522634401632068e+01
1.734525884904826497e-03,-3.115105337257961966e-03,1.538403289974807286e+01
1.726222819948700863e-03,-3.119841808044494097e-03,1.530326566256109899e+01
1.717950990932494469e-03,-3.124531747861463565e-03,1.522292239533747882e+01
1.709710421774655702e-03,-3.129175600218576329e-03,1.514300087268613204e+01
1.701501133468314320e-03,-3.133773804874936085e-03,1.506349888088284317e+01
1.693323144136821886e-03,-3.138326797860239558e-03,1.498441421781043204e+01
1.685176469088468625e-03,-3.142835011496108825e-03,1.490574469289911441e+01
1.677061120870379334e-03,-3.147298874417557655e-03,1.482748812706703667e+01
1.668977109321600040e-03,-3.151718811594577101e-03,1.474964235266103607e+01
1.660924441625396012e-03,-3.156095244353839934e-03,1.467220521339757688e+01
1.652903122360753528e-03,-3.160428590400498304e-03,1.459517456430395654e+01
1.644913153553109915e-03,-3.164719263840094169e-03,1.451854827165968587e+01
1.636954534724315968e-03,-3.168967675200549516e-03,1.444232421293812152e+01
1.629027262941843118e-03,-3.173174231454250691e-03,1.436650027674838270e+01
1.621131332867237077e-03,-3.177339336040196482e-03,1.429107436277742416e+01
1.613266736803843334e-03,-3.181463388886225131e-03,1.421604438173243246e+01
1.605433464743796475e-03,-3.185546786431304230e-03,1.414140825528344614e+01
1.597631504414295670e-03,-3.189589921647868753e-03,1.406716391600622806e+01
1.589860841323170433e-03,-3.193593184064221543e-03,1.399330930732542022e+01
1.582121458803744914e-03,-3.197556959786968054e-03,1.391984238345791525e+01
1.574413338059013710e-03,-3.201481631523492733e-03,1.384676110935655302e+01
1.566736458205136373e-03,-3.205367578604473994e-03,1.377406346065402509e+01
1.559090796314254726e-03,-3.209215177006409167e-03,1.370174742360708997e+01
1.551476327456653790e-03,-3.213024799374181520e-03,1.362981099504102112e+01
1.543893024742264836e-03,-3.216796815043632910e-03,1.355825218229435691e+01
1.536340859361520284e-03,-3.220531590064141646e-03,1.348706900316389756e+01
1.528819800625573922e-03,-3.224229487221220297e-03,1.341625948584997552e+01
1.521329816005892064e-03,-3.227890866059103525e-03,1.334582166890201016e+01
1.513870871173225848e-03,-3.231516082903337656e-03,1.327575360116432179e+01
1.506442930035966190e-03,-3.235105490883357238e-03,1.320605334172221212e+01
1.499045954777902204e-03,-3.238659439955061600e-03,1.313671895984833071e+01
1.491679905895378338e-03,-3.242178276923350210e-03,1.306774853494929722e+01
1.484344742233869056e-03,-3.245662345464668443e-03,1.299914015651261145e+01
1.477040421023970672e-03,-3.249111986149502609e-03,1.293089192405380494e+01
1.469766897916821580e-03,-3.252527536464855894e-03,1.286300194706389632e+01
1.462524127018962391e-03,-3.255909330836696987e-03,1.279546834495707763e+01
1.455312060926637271e-03,-3.259257700652357960e-03,1.272828924701870790e+01
1.448130650759545590e-03,-3.262572974282908732e-03,1.266146279235354477e+01
1.440979846194060353e-03,-3.265855477105475586e-03,1.259498712983424795e+01
1.433859595495904542e-03,-3.269105531525518492e-03,1.252886041805016148e+01
1.426769845552304863e-03,-3.272323456999057679e-03,1.246308082525634475e+01
1.419710541903630718e-03,-3.275509570054846008e-03,1.239764652932286815e+01
1.412681628774517962e-03,-3.278664184316487564e-03,1.233255571768438941e+01
1.405683049104489808e-03,-3.281787610524494660e-03,1.226780658728996443e+01
1.398714744578080519e-03,-3.284880156558285438e-03,1.220339734455314051e+01
1.391776655654468385e-03,-3.287942127458109900e-03,1.213932620530229478e+01
1.384868721596629708e-03,-3.290973825446926945e-03,1.207559139473123899e+01
1.377990880500009653e-03,-3.293975549952182520e-03,1.201219114735008198e+01
1.371143069320729293e-03,-3.296947597627547001e-03,1.194912370693633896e+01
1.364325223903326651e-03,-3.299890262374553709e-03,1.188638732648630025e+01
1.357537279008044556e-03,-3.302803835364177126e-03,1.182398026816666814e+01
1.350779168337663773e-03,-3.305688605058316586e-03,1.176190080326641407e+01
1.344050824563896391e-03,-3.308544857231218370e-03,1.170014721214892006e+01
1.337352179353344011e-03,-3.311372874990793289e-03,1.163871778420434744e+01
1.330683163393016170e-03,-3.314172938799865749e-03,1.157761081780227208e+01
1.324043706415439390e-03,-3.316945326497332171e-03,1.151682462024454878e+01
1.317433737223327322e-03,-3.319690313319219235e-03,1.145635750771843675e+01
1.310853183713859725e-03,-3.322408171919669258e-03,1.139620780524996846e+01
1.304301972902539462e-03,-3.325099172391822802e-03,1.133637384665754944e+01
1.297780030946653774e-03,-3.327763582288604562e-03,1.127685397450581739e+01
1.291287283168344796e-03,-3.330401666643428588e-03,1.121764654005974293e+01
1.284823654077284780e-03,-3.333013687990788593e-03,1.115874990323895055e+01
1.278389067392969028e-03,-3.335599906386762376e-03,1.110016243257229895e+01
1.271983446066634769e-03,-3.338160579429415645e-03,1.104188250515269587e+01
1.265606712302803178e-03,-3.340695962279096980e-03,1.098390850659214024e+01
1.259258787580457310e-03,-3.343206307678643890e-03,1.092623883097701309e+01
1.252939592673857697e-03,-3.345691865973472214e-03,1.086887188082358691e+01
1.246649047672999727e-03,-3.348152885131570108e-03,1.081180606703379787e+01
1.240387072003724727e-03,-3.350589610763386218e-03,1.075503980885119759e+01
1.234153584447479331e-03,-3.353002286141607696e-03,1.069857153381719606e+01
1.227948503160741344e-03,-3.355391152220833697e-03,1.064239967772749296e+01
1.221771745694098452e-03,-3.357756447657140025e-03,1.058652268458875589e+01
1.215623229011012505e-03,-3.360098408827536225e-03,1.053093900657550641e+01
1.209502869506241200e-03,-3.362417269849309488e-03,1.047564710398727073e+01
1.203410583023951192e-03,-3.364713262599263160e-03,1.042064544520590630e+01
1.197346284875509858e-03,-3.366986616732843378e-03,1.036593250665319310e+01
1.191309889856965011e-03,-3.369237559703142960e-03,1.031150677274862026e+01
1.185301312266219325e-03,-3.371466316779815533e-03,1.025736673586741077e+01
1.179320465919902246e-03,-3.373673111067850873e-03,1.020351089629875752e+01
1.173367264169945714e-03,-3.375858163526255281e-03,1.014993776220428323e+01
1.167441619919863888e-03,-3.378021692986610085e-03,1.009664584957671885e+01
1.161543445640745350e-03,-3.380163916171519557e-03,1.004363368219878971e+01
1.155672653386961022e-03,-3.382285047712935665e-03,9.990899791602329216e+00
1.149829154811591930e-03,-3.384385300170380476e-03,9.938442717027596629e+00
1.144012861181583100e-03,-3.386464884049043226e-03,9.886261005382825928e+00
1.138223683392620110e-03,-3.388524007817761158e-03,9.834353211203959333e+00
1.132461531983744571e-03,-3.390562877926892385e-03,9.782717896614618880e+00
1.126726317151703106e-03,-3.392581698826066007e-03,9.731353631286271622e+00
1.121017948765033311e-03,-3.394580672981809509e-03,9.680258992398607987e+00
1.115336336377902937e-03,-3.396560000895082476e-03,9.629432564600136857e+00
1.109681389243688879e-03,-3.398519881118658957e-03,9.578872939968968936e+00
1.104053016328311772e-03,-3.400460510274426126e-03,9.528578717973825718e+00
1.098451126323328388e-03,-3.402382083070541133e-03,9.478548505435238525e+00
1.092875627658780732e-03,-3.404284792318486904e-03,9.428780916486962482e+00
1.087326428515809863e-03,-3.406168828949997403e-03,9.379274572537580568e+00
1.081803436839037487e-03,-3.408034382033880982e-03,9.330028102232319043e+00
1.076306560348717044e-03,-3.409881638792711025e-03,9.281040141415065392e+00
1.070835706552658194e-03,-3.411710784619407296e-03,9.232309333090572778e+00
1.065390782757932300e-03,-3.413522003093699773e-03,9.183834327386870555e+00
1.059971696082356299e-03,-3.415315475998477544e-03,9.135613781517880838e+00
1.054578353465761460e-03,-3.417091383336008474e-03,9.087646359746219815e+00
1.049210661681051820e-03,-3.418849903344064762e-03,9.039930733346182024e+00
1.043868527345049885e-03,-3.420591212511901909e-03,8.992465580566957328e+00
1.038551856929142200e-03,-3.422315485596150956e-03,8.945249586596005997e+00
1.033260556769718475e-03,-3.424022895636575411e-03,8.898281443522632728e+00
1.027994533078413182e-03,-3.425713613971712382e-03,8.851559850301768506e+00
1.022753691952151336e-03,-3.427387810254413098e-03,8.805083512717923000e+00
1.017537939382999121e-03,-3.429045652467245953e-03,8.758851143349332347e+00
1.012347181267827818e-03,-3.430687306937802838e-03,8.712861461532309448e+00
1.007181323417788432e-03,-3.432312938353879270e-03,8.667113193325750586e+00
1.002040271567602656e-03,-3.433922709778543508e-03,8.621605071475865856e+00
9.969239313846762346e-04,-3.435516782665092462e-03,8.576335835381055261e+00
9.918322084780286773e-04,-3.437095316871887924e-03,8.531304231057008636e+00
9.867650084070473185e-04,-3.438658470677084800e-03,8.486509011101956546e+00
9.817222366900768028e-04,-3.440206400793241817e-03,8.441948934662123705e+00
9.767037988128294580e-04,-3.441739262381821648e-03,8.397622767397349364e+00
9.717096002366352060e-04,-3.443257209067576534e-03,8.353529281446901322e+00
9.667396605948488843e-04,-3.444670613514630962e-03,8.309667309347760877e+00
9.617937700632336233e-04,-3.446069406425418015e-03,8.266035582188195008e+00
9.568718340833690843e-04,-3.447453736889816156e-03,8.222632891341705275e+00
9.519737581038400674e-04,-3.448823752517541936e-03,8.179458034526248866e+00
9.470994475876847634e-04,-3.450179599451968365e-03,8.136509815770926579e+00
9.422488080196934944e-04,-3.451521422383850481e-03,8.093787045382867973e+00
9.374217449135554495e-04,-3.452849364564924712e-03,8.051288539914267517e+00
9.326181638188608958e-04,-3.454163567821411530e-03,8.009013122129594819e+00
9.278379703279581066e-04,-3.455464172567397543e-03,7.966959620973005585e+00
9.230810700826677173e-04,-3.456751317818115236e-03,7.925126871535874251e+00
9.183473687808576527e-04,-3.458025141203122099e-03,7.883513715024556667e+00
9.136367721828799263e-04,-3.459285778979350086e-03,7.842118998728261126e+00
9.089491861178731081e-04,-3.460533366044074837e-03,7.800941575987140553e+00
9.042845164899295917e-04,-3.461768035947760877e-03,7.759980306160512598e+00
8.996426692841359013e-04,-3.462989920906802289e-03,7.719234054595277783e+00
8.950235505724784494e-04,-3.464199151816167548e-03,7.678701692594475325e+00
8.904270665196280807e-04,-3.465395858261929862e-03,7.638382097386022807e+00
8.858531233885958128e-04,-3.466580168533699071e-03,7.598274152091621936e+00
8.813016275462675795e-04,-3.467752209636940346e-03,7.558376745695811749e+00
8.767724854688188456e-04,-3.468912107305203128e-03,7.518688773015186122e+00
8.722656037470120178e-04,-3.470059986012241204e-03,7.479209134667803127e+00
8.677808890913706920e-04,-3.471195968984022630e-03,7.439936737042704529e+00
8.633182483372476472e-04,-3.472320178210652492e-03,7.400870492269636003e+00
8.588775884497749881e-04,-3.473432734458184630e-03,7.362009318188914797e+00
8.544588165287035891e-04,-3.474533757280332761e-03,7.323352138321442162e+00
8.500618398131340112e-04,-3.475623365030090089e-03,7.284897881838898748e+00
8.456865656861420333e-04,-3.476701674871241800e-03,7.246645483534066123e+00
8.413329016792956555e-04,-3.477768802789778669e-03,7.208593883791334811e+00
8.370007554770676934e-04,-3.478824863605218306e-03,7.170742028557334891e+00
8.326900349211522039e-04,-3.479869970981822741e-03,7.133088869311757563e+00
8.284006480146721653e-04,-3.480904237439724942e-03,7.095633363038297503e+00
8.241325029262969518e-04,-3.481927774365953850e-03,7.058374472195764859e+00
8.198855079942540987e-04,-3.482940692025360534e-03,7.021311164689342021e+00
8.156595717302544393e-04,-3.483943099571465852e-03,6.984442413841995823e+00
8.114546028233169533e-04,-3.484935105057191014e-03,6.947767198366041619e+00
8.072705101435044940e-04,-3.485916815445510523e-03,6.911284502334845037e+00
8.031072027455672495e-04,-3.486888336620003193e-03,6.874993315154685369e+00
7.989645898725002268e-04,-3.487849773395314268e-03,6.838892631536764632e+00
7.948425809590080370e-04,-3.488801229527526467e-03,6.802981451469348961e+00
7.907410856348878227e-04,-3.489742807724435184e-03,6.767258780190078760e+00
7.866600137283276178e-04,-3.490674609655734350e-03,6.731723628158409412e+00
7.825992752691169957e-04,-3.491596735963115559e-03,6.696375011028199431e+00
7.785587804917830151e-04,-3.492509286270272222e-03,6.661211949620445161e+00
7.745384398386379130e-04,-3.493412359192815241e-03,6.626233469896152251e+00
7.705381639627548055e-04,-3.494306052348107594e-03,6.591438602929362567e+00
7.665578637308599055e-04,-3.495190462364997433e-03,6.556826384880305447e+00
7.625974502261547014e-04,-3.496065684893480061e-03,6.522395856968704386e+00
7.586568347510576869e-04,-3.496931814614256256e-03,6.488146065447218724e+00
7.547359288298741012e-04,-3.497788945248221648e-03,6.454076061575016787e+00
7.508346442113943272e-04,-3.498637169565853734e-03,6.420184901591504456e+00
7.469528928714210588e-04,-3.499476579396528647e-03,6.386471646690178083e+00
7.430905870152243681e-04,-3.500307265637747287e-03,6.352935362992614188e+00
7.392476390799318292e-04,-3.501129318264270800e-03,6.319575121522612804e+00
7.354239617368467591e-04,-3.501942826337193625e-03,6.286389998180450078e+00
7.316194678937046596e-04,-3.502747878012904634e-03,6.253379073717292513e+00
7.278340706968591855e-04,-3.503544560551996676e-03,6.220541433709722234e+00
7.240676835334109752e-04,-3.504332960328067695e-03,6.187876168534414134e+00
7.203202200332669853e-04,-3.505113162836471542e-03,6.155382373342937363e+00
7.165915940711419267e-04,-3.505885252702953432e-03,6.123059148036689159e+00
7.128817197684979030e-04,-3.506649313692235953e-03,6.090905597241960123e+00
7.091905114954241999e-04,-3.507405428716507071e-03,6.058920830285136283e+00
7.055178838724600462e-04,-3.508153679843850018e-03,6.027103961168025492e+00
7.018637517723565504e-04,-3.508894148306566062e-03,5.995454108543307292e+00
6.982280303217864876e-04,-3.509626914509447401e-03,5.963970395690131099e+00
6.946106349029956481e-04,-3.510352058037965930e-03,5.932651950489821857e+00
6.910114811553999753e-04,-3.511069657666373526e-03,5.901497905401725141e+00
6.874304849771309877e-04,-3.511779791365744231e-03,5.870507397439175712e+00
6.838675625265264483e-04,-3.512482536311939234e-03,5.839679568145589528e+00
6.803226302235698599e-04,-3.513177968893482078e-03,5.809013563570688099e+00
6.767956047512820386e-04,-3.513866164719378800e-03,5.778508534246838302e+00
6.732864030570589109e-04,-3.514547198626858261e-03,5.748163635165527197e+00
6.697949423539640993e-04,-3.515221144689040927e-03,5.717978025753951421e+00
6.663211401219699005e-04,-3.515888076222528722e-03,5.687950869851731817e+00
6.628649141091550031e-04,-3.516548065794935021e-03,5.658081335687755953e+00
6.594261823328529835e-04,-3.517201185232340498e-03,5.628368595857131673e+00
6.560048630807572157e-04,-3.517847505626675239e-03,5.598811827298272092e+00
6.526008749119807878e-04,-3.518487097343031469e-03,5.569410211270091615e+00
6.492141366580727246e-04,-3.519120030026912961e-03,5.540162933329332517e+00
6.458445674239917094e-04,-3.519746372611414625e-03,5.511069183307998109e+00
6.424920865890347034e-04,-3.520366193324323597e-03,5.482128155290914684e+00
6.391566138077311955e-04,-3.520979559695176092e-03,5.453339047593405375e+00
6.358380690106883379e-04,-3.521586538562217553e-03,5.424701062739083035e+00
6.325363724054034473e-04,-3.522187196079326794e-03,5.396213407437759457e+00
6.292514444770329210e-04,-3.522781597722850818e-03,5.367875292563474510e+00
6.259832059891246156e-04,-3.523369808298392782e-03,5.339685933132625628e+00
6.227315779843145549e-04,-3.523951891947514539e-03,5.311644548282240308e+00
6.194964817849811381e-04,-3.524527912154402313e-03,5.283750361248330307e+00
6.162778389938703989e-04,-3.525097931752442602e-03,5.256002599344382631e+00
6.130755714946794143e-04,-3.525662012930756879e-03,5.228400493939954430e+00
6.098896014526088150e-04,-3.526220217240654334e-03,5.200943280439380700e+00
6.067198513148812497e-04,-3.526772605602038636e-03,5.173630198260594781e+00
6.035662438112228802e-04,-3.527319238309749652e-03,5.146460490814058097e+00
6.004287019543146260e-04,-3.527860175039833606e-03,5.119433405481805366e+00
5.973071490402137021e-04,-3.528395474855770732e-03,5.092548193596592832e+00
5.942015086487367759e-04,-3.528925196214628343e-03,5.065804110421165518e+00
5.911117046438193806e-04,-3.529449396973162283e-03,5.039200415127619515e+00
5.880376611738398745e-04,-3.529968134393859404e-03,5.012736370776889494e+00
5.849793026719161872e-04,-3.530481465150917594e-03,4.986411244298323275e+00
5.819365538561725336e-04,-3.530989445336170721e-03,4.960224306469390498e+00
5.789093397299781545e-04,-3.531492130464959373e-03,4.934174831895467683e+00
5.758975855821573276e-04,-3.531989575481940882e-03,4.908262098989756517e+00
5.729012169871718378e-04,-3.532481834766843833e-03,4.882485389953284738e+00
5.699201598052775364e-04,-3.532968962140165328e-03,4.856843990755034035e+00
5.669543401826521688e-04,-3.533451010868820553e-03,4.831337191112148766e+00
5.640036845515022761e-04,-3.533928033671729883e-03,4.805964284470270798e+00
5.610681196301377889e-04,-3.534400082725349616e-03,4.780724567983962281e+00
5.581475724230281887e-04,-3.534867209669162371e-03,4.755617342497235889e+00
5.552419702208295045e-04,-3.535329465611094200e-03,4.730641912524191639e+00
5.523512406003913602e-04,-3.535786901132901769e-03,4.705797586229749641e+00
5.494753114247382178e-04,-3.536239566295484946e-03,4.681083675410481426e+00
5.466141108430280695e-04,-3.536687510644167306e-03,4.656499495475553196e+00
5.437675672904910716e-04,-3.537130783213906365e-03,4.632044365427760546e+00
5.409356094883405316e-04,-3.537569432534472171e-03,4.607717607844660002e+00
5.381181664436702344e-04,-3.538003506635557360e-03,4.583518548859808028e+00
5.353151674493244463e-04,-3.538433053051853825e-03,4.559446518144096849e+00
5.325265420837499214e-04,-3.538858118828060000e-03,4.535500848887174641e+00
5.297522202108282839e-04,-3.539278750523859943e-03,4.511680877778990073e+00
5.269921319796871603e-04,-3.539694994218846053e-03,4.487985944991407017e+00
5.242462078244941809e-04,-3.540106895517381065e-03,4.464415394159931161e+00
5.215143784642266951e-04,-3.540514499553428385e-03,4.440968572365527223e+00
5.187965749024331386e-04,-3.540917850995336895e-03,4.417644830116532972e+00
5.160927284269640428e-04,-3.541316994050559830e-03,4.394443521330667402e+00
5.134027706096958889e-04,-3.541711972470343306e-03,4.371364003317133040e+00
5.107266333062309999e-04,-3.542102829554364968e-03,4.348405636758819526e+00
5.080642486555829061e-04,-3.542489608155328408e-03,4.325567785694580003e+00
5.054155490798463131e-04,-3.542872350683503799e-03,4.302849817501632756e+00
5.027804672838488568e-04,-3.543251099111236011e-03,4.280251102878020575e+00
5.001589362547861602e-04,-3.543625894977398515e-03,4.257771015825190020e+00
4.975508892618468086e-04,-3.543996779391811285e-03,4.235408933630643524e+00
4.949562598558141218e-04,-3.544363793039603198e-03,4.213164236850695410e+00
4.923749818686610959e-04,-3.544726976185548408e-03,4.191036309293310502e+00
4.898069894131242040e-04,-3.545086368678341572e-03,4.169024538001033342e+00
4.872522168822693354e-04,-3.545442009954848355e-03,4.147128313234012431e+00
4.847105989490381656e-04,-3.545793939044294355e-03,4.125347028453108855e+00
4.821820705657854731e-04,-3.546142194572435378e-03,4.103680080303091948e+00
4.796665669637987291e-04,-3.546486814765661359e-03,4.082126868595929103e+00
4.771640236528119417e-04,-3.546827837455081636e-03,4.060686796294160850e+00
4.746743764204997668e-04,-3.547165300080557318e-03,4.039359269494357640e+00
4.721975613319625122e-04,-3.547499239694694613e-03,4.018143697410677007e+00
4.697335147291995406e-04,-3.547829692966807807e-03,3.997039492358486878e+00
4.672821732305697164e-04,-3.548156696186819357e-03,3.976046069738097710e+00
4.648434737302426911e-04,-3.548480285269156511e-03,3.955162848018560773e+00
4.624173533976367440e-04,-3.548800495756576807e-03,3.934389248721563259e+00
4.600037496768455110e-04,-3.549117362823972759e-03,3.913724696405402881e+00
4.576026002860572313e-04,-3.549430921282136202e-03,3.893168618649045065e+00
4.552138432169620681e-04,-3.549741205581477110e-03,3.872720446036274300e+00
4.528374167341465821e-04,-3.550048249815718985e-03,3.852379612139911202e+00
4.504732593744836507e-04,-3.550352087725540916e-03,3.832145553506131286e+00
4.481213099465080219e-04,-3.550652752702204880e-03,3.812017709638847673e+00
4.457815075297884527e-04,-3.550950277791117566e-03,3.791995522984193734e+00
4.434537914742819583e-04,-3.551244695695386991e-03,3.772078438915072773e+00
4.411381013996887117e-04,-3.551536038779319702e-03,3.752265905715796102e+00
4.388343771947930119e-04,-3.551824339071901065e-03,3.732557374566800146e+00
4.365425590167967699e-04,-3.552109628270224383e-03,3.712952299529444833e+00
4.342625872906440512e-04,-3.552391937742898752e-03,3.693450137530889243e+00
4.319944027083410642e-04,-3.552671298533417472e-03,3.674050348349049422e+00
4.297379462282660111e-04,-3.552947741363490005e-03,3.654752394597633902e+00
4.274931590744693983e-04,-3.553221296636344898e-03,3.635555741711253841e+00
4.252599827359728282e-04,-3.553491994439996696e-03,3.616459857930621968e+00
4.230383589660551610e-04,-3.553759864550482071e-03,3.597464214287816819e+00
4.208282297815355314e-04,-3.554024936435066021e-03,3.578568284591631787e+00
4.186295374620474757e-04,-3.554287239255406010e-03,3.559771545413002780e+00
4.164422245493066069e-04,-3.554546801870693551e-03,3.541073476070502934e+00
4.142662338463753090e-04,-3.554803652840765864e-03,3.522473558615923483e+00
4.121015084169174568e-04,-3.555057820429171570e-03,3.503971277819924790e+00
4.099479915844492315e-04,-3.555309332606222065e-03,3.485566121157762431e+00
4.078056269315826193e-04,-3.555558217052010375e-03,3.467257578795095441e+00
4.056743582992667404e-04,-3.555804501159382305e-03,3.449045143573856276e+00
4.035541297860206680e-04,-3.556048212036899345e-03,3.430928310998209163e+00
4.014448857471620180e-04,-3.556289376511763845e-03,3.412906579220569725e+00
3.993465707940307150e-04,-3.556528021132702999e-03,3.394979449027707652e+00
3.972591297932084745e-04,-3.556764172172847613e-03,3.377146423826913768e+00
3.951825078657323774e-04,-3.556997855632554936e-03,3.359407009632249697e+00
3.931166503863044322e-04,-3.557229097242225850e-03,3.341760715050858810e+00
3.910615029824985895e-04,-3.557457922465082599e-03,3.324207051269358004e+00
3.890170115339590829e-04,-3.557684356499913117e-03,3.306745532040294311e+00
3.869831221716007216e-04,-3.557908424283800185e-03,3.289375673668677891e+00
3.849597812768009971e-04,-3.558130150494817623e-03,3.272096994998582531e+00
3.829469354805886119e-04,-3.558349559554693526e-03,3.254909017399817195e+00
3.809445316628311956e-04,-3.558566675631458752e-03,3.237811264754667295e+00
3.789525169514162983e-04,-3.558781522642052476e-03,3.220803263444707909e+00
3.769708387214316253e-04,-3.558994124254918640e-03,3.203884542337680941e+00
3.749994445943403390e-04,-3.559204503892560330e-03,3.187054632774447338e+00
3.730382824371548966e-04,-3.559412684734083315e-03,3.170313068556003255e+00
3.710873003616060092e-04,-3.559618689717698823e-03,3.153659385930567272e+00
3.691464467233108960e-04,-3.559822541543213297e-03,3.137093123580732890e+00
3.672156701209368769e-04,-3.560024262674483467e-03,3.120613822610690757e+00
3.652949193953638259e-04,-3.560223875341854936e-03,3.104221026533515726e+00
3.633841436288445651e-04,-3.560421401544568241e-03,3.087914281258524074e+00
3.614832921441612471e-04,-3.560616863053147133e-03,3.071693135078692016e+00
3.595923145037807070e-04,-3.560810281411756935e-03,3.055557138658146599e+00
3.577111605090073213e-04,-3.561001677940541215e-03,3.039505845019715213e+00
3.558397801991347825e-04,-3.561191073737937640e-03,3.023538809532546168e+00
3.539781238505941867e-04,-3.561378489682962608e-03,3.007655589899792759e+00
3.521261419761025015e-04,-3.561563946437482867e-03,2.991855746146359074e+00
3.502837853238079981e-04,-3.561747464448458082e-03,2.976138840606712410e+00
3.484510048764354116e-04,-3.561929063950158240e-03,2.960504437912763631e+00
3.466277518504268739e-04,-3.562108764966360249e-03,2.944952104981802155e+00
3.448139776950857188e-04,-3.562286587312526315e-03,2.929481411004502878e+00
3.430096340917153006e-04,-3.562462550597959767e-03,2.914091927432989948e+00
3.412146729527587336e-04,-3.562636674227927062e-03,2.898783227968968479e+00
3.394290464209369514e-04,-3.562808977405774579e-03,2.883554888551913109e+00
3.376527068683857365e-04,-3.562979479135018959e-03,2.868406487347322731e+00
3.358856068957920445e-04,-3.563148198221404057e-03,2.853337604735034283e+00
3.341276993315299491e-04,-3.563315153274953552e-03,2.838347823297600492e+00
3.323789372307951241e-04,-3.563480362711994066e-03,2.823436727808727564e+00
3.306392738747385650e-04,-3.563643844757157907e-03,2.808603905221769725e+00
3.289086627696012339e-04,-3.563805617445366721e-03,2.793848944658291700e+00
3.271870576458469140e-04,-3.563965698623796936e-03,2.779171437396683153e+00
3.254744124572959865e-04,-3.564124105953818747e-03,2.764570976860840634e+00
3.237706813802550872e-04,-3.564280856912923831e-03,2.750047158608904141e+00
3.220758188126541361e-04,-3.564435968796623132e-03,2.735599580322050528e+00
3.203897793731750720e-04,-3.564589458720340744e-03,2.721227841793353974e+00
3.187125179003849791e-04,-3.564741343621263131e-03,2.706931544916697963e+00
3.170439894518687794e-04,-3.564891640260203515e-03,2.692710293675744548e+00
3.153841493033612744e-04,-3.565040365223411632e-03,2.678563694132969353e+00
3.137329529478800005e-04,-3.565187534924392585e-03,2.664491354418747182e+00
3.120903560948577043e-04,-3.565333165605693612e-03,2.650492884720494047e+00
3.104563146692743310e-04,-3.565477273340672201e-03,2.636567897271874905e+00
3.088307848107931311e-04,-3.565619874035253802e-03,2.622716006342057593e+00
3.072137228728908601e-04,-3.565760983429666110e-03,2.608936828225029814e+00
3.056050854219956748e-04,-3.565900617100149946e-03,2.595229981228970306e+00
3.040048292366179824e-04,-3.566038790460668382e-03,2.581595085665674638e+00
3.024129113064897472e-04,-3.566175518764584662e-03,2.568031763840039172e+00
3.008292888316980497e-04,-3.566310817106324495e-03,2.554539640039596549e+00
2.992539192218224959e-04,-3.566444700423028382e-03,2.541118340524110231e+00
2.976867600950734391e-04,-3.566577183496181386e-03,2.527767493515221453e+00
2.961277692774287379e-04,-3.566708280953223391e-03,2.514486729186149461e+00
2.945769048017742009e-04,-3.566838007269153722e-03,2.501275679651447703e+00
2.930341249070441941e-04,-3.566966376768109306e-03,2.488133978956812875e+00
2.914993880373618136e-04,-3.567093403624927231e-03,2.475061263068949469e+00
2.899726528411804695e-04,-3.567219101866694279e-03,2.462057169865481843e+00
2.884538781704298590e-04,-3.567343485374284764e-03,2.449121339124929353e+00
2.869430230796569535e-04,-3.567466567883871044e-03,2.436253412516720562e+00
2.854400468251743579e-04,-3.567588362988430555e-03,2.423453033591275396e+00
2.839449088642050372e-04,-3.567708884139228574e-03,2.410719847770123270e+00
2.824575688540312182e-04,-3.567828144647292726e-03,2.398053502336086495e+00
2.809779866511449170e-04,-3.567946157684864956e-03,2.385453646423507656e+00
2.795061223103956476e-04,-3.568062936286842211e-03,2.372919931008531158e+00
2.780419360841466419e-04,-3.568178493352205851e-03,2.360452008899434517e+00
2.765853884214242381e-04,-3.568292841645431986e-03,2.348049534727010723e+00
2.751364399670748603e-04,-3.568405993797884451e-03,2.335712164935002111e+00
2.736950515609224300e-04,-3.568517962309203893e-03,2.323439557770583086e+00
2.722611842369252909e-04,-3.568628759548667789e-03,2.311231373274893919e+00
2.708347992223350846e-04,-3.568738397756552640e-03,2.299087273273622500e+00
2.694158579368602347e-04,-3.568846889045469706e-03,2.287006921367637613e+00
2.680043219918259068e-04,-3.568954245401689037e-03,2.274989982923671494e+00
2.666001531893407990e-04,-3.569060478686457427e-03,2.263036125065046367e+00
2.652033135214638244e-04,-3.569165600637295554e-03,2.251145016662459142e+00
2.638137651693702509e-04,-3.569269622869281674e-03,2.239316328324803873e+00
2.624314705025225579e-04,-3.569372556876324477e-03,2.227549732390051052e+00
2.610563920778428103e-04,-3.569474414032425963e-03,2.215844902916167314e+00
2.596884926388858461e-04,-3.569575205592924374e-03,2.204201515672092881e+00
2.583277351150133853e-04,-3.569674942695727580e-03,2.192619248128753195e+00
2.569740826205728010e-04,-3.569773636362535193e-03,2.181097779450128282e+00
2.556274984540756736e-04,-3.569871297500047669e-03,2.169636790484365640e+00
2.542879460973800315e-04,-3.569967936901157629e-03,2.158235963754938425e+00
2.529553892148716154e-04,-3.570063565246140314e-03,2.146894983451849370e+00
2.516297916526508897e-04,-3.570158193103817150e-03,2.135613535422888010e+00
2.503111174377204871e-04,-3.570251830932718879e-03,2.124391307164923859e+00
2.489993307771723821e-04,-3.570344489082232647e-03,2.113227987815251563e+00
2.476943960573804314e-04,-3.570436177793735212e-03,2.102123268142977786e+00
2.463962778431953542e-04,-3.570526907201720945e-03,2.091076840540457837e+00
2.451049408771381936e-04,-3.570616687334904685e-03,2.080088399014775380e+00
2.438203500785994981e-04,-3.570705528117334559e-03,2.069157639179262986e+00
2.425424705430378797e-04,-3.570793439369467515e-03,2.058284258245072884e+00
2.412712675411834225e-04,-3.570880430809259161e-03,2.047467955012788110e+00
2.400067065182422317e-04,-3.570966512053221943e-03,2.036708429864080294e+00
2.387487530931012790e-04,-3.571051692617487235e-03,2.026005384753410077e+00
2.374973730575402153e-04,-3.571135981918841830e-03,2.015358523199771490e+00
2.362525323754383034e-04,-3.571219389275769648e-03,2.004767550278474531e+00
2.350141971819917055e-04,-3.571301923909472181e-03,1.994232172612982357e+00
2.337823337829273015e-04,-3.571383594944876807e-03,1.983752098366780459e+00
2.325569086537217374e-04,-3.571464411411649862e-03,1.973327037235293568e+00
2.313378884388206380e-04,-3.571544382245174596e-03,1.962956700437846091e+00
2.301252399508617753e-04,-3.571623516287540830e-03,1.952640800709658286e+00
2.289189301698996474e-04,-3.571701822288518569e-03,1.942379052293891961e+00
2.277189262426340959e-04,-3.571779308906509499e-03,1.932171170933734805e+00
2.265251954816400884e-04,-3.571855984709510195e-03,1.922016873864524911e+00
2.253377053645989111e-04,-3.571931858176045829e-03,1.911915879805919261e+00
2.241564235335329113e-04,-3.572006937696099119e-03,1.901867908954101960e+00
2.229813177940437915e-04,-3.572081231572044047e-03,1.891872682974031328e+00
2.218123561145507407e-04,-3.572154748019545304e-03,1.881929924991733616e+00
2.206495066255339318e-04,-3.572227495168471198e-03,1.872039359586631146e+00
2.194927376187775592e-04,-3.572299481063782259e-03,1.862200712783911971e+00
2.183420175466179987e-04,-3.572370713666417254e-03,1.852413712046942829e+00
2.171973150211925095e-04,-3.572441200854167918e-03,1.842678086269718962e+00
2.160585988136913245e-04,-3.572510950422545448e-03,1.832993565769355016e+00
2.149258378536121530e-04,-3.572579970085636158e-03,1.823359882278611011e+00
2.137990012280169868e-04,-3.572648267476952796e-03,1.813776768938466288e+00
2.126780581807925124e-04,-3.572715850150274142e-03,1.804243960290724313e+00
2.115629781119097357e-04,-3.572782725580472048e-03,1.794761192270659445e+00
2.104537305766926067e-04,-3.572848901164334991e-03,1.785328202199704339e+00
2.093502852850802744e-04,-3.572914384221387730e-03,1.775944728778170001e+00
2.082526121009010500e-04,-3.572979181994682344e-03,1.766610512078010231e+00
2.071606810411420079e-04,-3.573043301651615284e-03,1.757325293535622057e+00
2.060744622752237352e-04,-3.573106750284698024e-03,1.748088815944680130e+00
2.049939261242804758e-04,-3.573169534912348094e-03,1.738900823449014421e+00
2.039190430604364797e-04,-3.573231662479653230e-03,1.729761061535523670e+00
2.028497837060912700e-04,-3.573293139859145054e-03,1.720669277027122135e+00
2.017861188332037707e-04,-3.573353973851550649e-03,1.711625218075730093e+00
2.007280193625783334e-04,-3.573414171186538053e-03,1.702628634155294085e+00
1.996754563631588666e-04,-3.573473738523464359e-03,1.693679276054848470e+00
1.986284010513187650e-04,-3.573532682452101698e-03,1.684776895871613611e+00
1.975868247901570185e-04,-3.573591009493365823e-03,1.675921247004127368e+00
1.965506990887967329e-04,-3.573648726100038184e-03,1.667112084145413231e+00
1.955199956016857659e-04,-3.573705838657465893e-03,1.658349163276185978e+00
1.944946861279016716e-04,-3.573762353484279900e-03,1.649632241658094634e+00
1.934747426104535561e-04,-3.573818276833070663e-03,1.640961077826993186e+00
1.924601371355953163e-04,-3.573873614891101991e-03,1.632335431586257268e+00
1.914508419321347596e-04,-3.573928373780965902e-03,1.623755064000127257e+00
1.904468293707471953e-04,-3.573982559561279977e-03,1.615219737387090904e+00
1.894480719632923871e-04,-3.574036178227337456e-03,1.606729215313298376e+00
1.884545423621335929e-04,-3.574089235711780301e-03,1.598283262586014164e+00
1.874662133594606436e-04,-3.574141737885244956e-03,1.589881645247101183e+00
1.864830578866111233e-04,-3.574193690557009827e-03,1.581524130566539954e+00
1.855050490134014173e-04,-3.574245099475640165e-03,1.573210487035982874e+00
1.845321599474538559e-04,-3.574295970329617773e-03,1.564940484362340012e+00
1.835643640335290626e-04,-3.574346308747966376e-03,1.556713893461401321e+00
1.826016347528623413e-04,-3.574396120300877416e-03,1.548530486451488830e+00
1.816439457224993856e-04,-3.574445410500315910e-03,1.540390036647146355e+00
1.806912706946376529e-04,-3.574494184800636274e-03,1.532292318552858079e+00
1.797435835559694735e-04,-3.574542448599179936e-03,1.524237107856803775e+00
1.788008583270271385e-04,-3.574590207236865574e-03,1.516224181424645101e+00
1.778630691615304263e-04,-3.574637465998787601e-03,1.508253317293344109e+00
1.769301903457372478e-04,-3.574684230114790352e-03,1.500324294665013491e+00
1.760021962977991144e-04,-3.574730504760048784e-03,1.492436893900803474e+00
1.750790615671141408e-04,-3.574776295055638337e-03,1.484590896514815572e+00
1.741607608336872572e-04,-3.574821606069096113e-03,1.476786085168048768e+00
1.732472689074919666e-04,-3.574866442814988565e-03,1.469022243662383653e+00
1.723385607278332405e-04,-3.574910810255452296e-03,1.461299156934589449e+00
1.714346113627145888e-04,-3.574954713300751343e-03,1.453616611050368768e+00
1.705353960082054278e-04,-3.574998156809814937e-03,1.445974393198430352e+00
1.696408899878153328e-04,-3.575041145590769631e-03,1.438372291684594906e+00
1.687510687518671798e-04,-3.575083684401477932e-03,1.430810095925930669e+00
1.678659078768741356e-04,-3.575125777950054814e-03,1.423287596444921199e+00
1.669853830649184641e-04,-3.575167430895392039e-03,1.415804584863659787e+00
1.661094701430338837e-04,-3.575208647847669466e-03,1.408360853898080522e+00
1.652381450625916648e-04,-3.575249433368864627e-03,1.400956197352213994e+00
1.643713838986874591e-04,-3.575289791973258833e-03,1.393590410112478750e+00
1.635091628495292135e-04,-3.575329728127928097e-03,1.386263288141994732e+00
1.626514582358318326e-04,-3.575369246253243607e-03,1.378974628474935793e+00
1.617982465002110832e-04,-3.575408350723353109e-03,1.371724229210904200e+00
1.609495042065825119e-04,-3.575447045866667929e-03,1.364511889509339992e+00
1.601052080395609330e-04,-3.575485335966339159e-03,1.357337409583956767e+00
1.592653348038621658e-04,-3.575523225260729930e-03,1.350200590697207659e+00
1.584298614237110328e-04,-3.575560717943883360e-03,1.343101235154780193e+00
1.575987649422452657e-04,-3.575597818165984418e-03,1.336039146300119107e+00
1.567720225209307406e-04,-3.575634530033820063e-03,1.329014128508980042e+00
1.559496114389713744e-04,-3.575670857611232441e-03,1.322025987184010765e+00
1.551315090927240614e-04,-3.575706804919562536e-03,1.315074528749359262e+00
1.543176929951203065e-04,-3.575742375938100338e-03,1.308159560645312469e+00
1.535081407750837098e-04,-3.575777574604521118e-03,1.301280891322963429e+00
1.527028301769548521e-04,-3.575812404815322150e-03,1.294438330238902868e+00
1.519017390599151495e-04,-3.575846870426245116e-03,1.287631687849942752e+00
1.511048453974174575e-04,-3.575880975252713253e-03,1.280860775607865376e+00
1.503121272766149406e-04,-3.575914723070247690e-03,1.274125405954199763e+00
1.495235628977948750e-04,-3.575948117614876406e-03,1.267425392315026711e+00
1.487391305738157573e-04,-3.575981162583564011e-03,1.260760549095811367e+00
1.479588087295439537e-04,-3.576013861634600322e-03,1.254130691676261122e+00
1.471825759012939262e-04,-3.576046218388018432e-03,1.247535636405211257e+00
1.464104107362742863e-04,-3.576078236425991094e-03,1.240975200595540340e+00
1.456422919920292145e-04,-3.576109919293220599e-03,1.234449202519104727e+00
1.448781985358908568e-04,-3.576141270497337765e-03,1.227957461401709027e+00
1.441181093444286309e-04,-3.576172293509283576e-03,1.221499797418097222e+00
1.433620035029000513e-04,-3.576202991763696021e-03,1.215076031686970204e+00
1.426098602047096034e-04,-3.576233368659290871e-03,1.208685986266031964e+00
1.418616587508649354e-04,-3.576263427559226403e-03,1.202329484147060201e+00
1.411173785494377654e-04,-3.576293171791492843e-03,1.196006349251002465e+00
1.403769991150276351e-04,-3.576322604649262351e-03,1.189716406423100503e+00
1.396405000682247421e-04,-3.576351729391266752e-03,1.183459481428035476e+00
1.389078611350804153e-04,-3.576380549242142316e-03,1.177235400945103372e+00
1.381790621465756117e-04,-3.576409067392802288e-03,1.171043992563414626e+00
1.374540830380947538e-04,-3.576437287000780365e-03,1.164885084777116164e+00
1.367329038488997010e-04,-3.576465211190578072e-03,1.158758506980641645e+00
1.360155047216079507e-04,-3.576492843054013444e-03,1.152664089463986574e+00
1.353018659016708115e-04,-3.576520185650564933e-03,1.146601663408005178e+00
1.345919677368580280e-04,-3.576547242007701872e-03,1.140571060879735699e+00
1.338857906767402638e-04,-3.576574015121227086e-03,1.134572114827747891e+00
1.331833152721761113e-04,-3.576600507955600416e-03,1.128604659077514949e+00
1.324845221748031129e-04,-3.576626723444273955e-03,1.122668528326812298e+00
1.317893921365272916e-04,-3.576652664490009934e-03,1.116763558141135482e+00
1.310979060090182923e-04,-3.576678333965204685e-03,1.110889584949148912e+00
1.304100447432056614e-04,-3.576703734712203923e-03,1.105046446038152386e+00
1.297257893887762378e-04,-3.576728869543619772e-03,1.099233979549573359e+00
1.290451210936772628e-04,-3.576753741242636505e-03,1.093452024474486528e+00
1.283680211036175936e-04,-3.576778352563324530e-03,1.087700420649150734e+00
1.276944707615740380e-04,-3.576802706230940501e-03,1.081979008750572735e+00
1.270244515072993985e-04,-3.576826804942230889e-03,1.076287630292095177e+00
1.263579448768325749e-04,-3.576850651365724720e-03,1.070626127619004775e+00
1.256949325020111888e-04,-3.576874248142036285e-03,1.064994343904167584e+00
1.250353961099859421e-04,-3.576897597884151365e-03,1.059392123143681808e+00
1.243793175227383638e-04,-3.576920703177719537e-03,1.053819310152559696e+00
1.237266786565975542e-04,-3.576943566581335630e-03,1.048275750560425212e+00
1.230774615217658464e-04,-3.576966190626827257e-03,1.042761290807240337e+00
1.224316482218394263e-04,-3.576988577819531934e-03,1.037275778139051585e+00
1.217892209533346986e-04,-3.577010730638573340e-03,1.031819060603756277e+00
1.211501620052177707e-04,-3.577032651537138432e-03,1.026390987046895242e+00
1.205144537584346403e-04,-3.577054342942745033e-03,1.020991407107465276e+00
1.198820786854430914e-04,-3.577075807257514180e-03,1.015620171213754919e+00
1.192530193497484930e-04,-3.577097046858430766e-03,1.010277130579200433e+00
1.186272584054395710e-04,-3.577118064097611124e-03,1.004962137198263106e+00
1.180047785967283810e-04,-3.577138861302561063e-03,9.996750438423310792e-01
1.173855627574938592e-04,-3.577159440776427838e-03,9.944157040556409477e-01
1.167695938108213215e-04,-3.577179804798271204e-03,9.891839721512198924e-01
1.161568547685522073e-04,-3.577199955623290659e-03,9.839797032068505755e-01
1.155473287308299345e-04,-3.577219895483097802e-03,9.788027530610572402e-01
1.149409988856509046e-04,-3.577239626585950513e-03,9.736529783091120160e-01
1.143378485084156968e-04,-3.577259151116998857e-03,9.685302362990615421e-01
1.137378609614849519e-04,-3.577278471238529677e-03,9.634343851277765713e-01
1.131410196937355676e-04,-3.577297589090203383e-03,9.583652836370211148e-01
1.125473082401183848e-04,-3.577316506789292912e-03,9.533227914095424582e-01
1.119567102212197767e-04,-3.577335226430910110e-03,9.483067687651794975e-01
1.113692093428244310e-04,-3.577353750088252057e-03,9.433170767569960535e-01
1.107847893954812620e-04,-3.577372079812814881e-03,9.383535771674301751e-01
1.102034342540691883e-04,-3.577390217634630106e-03,9.334161325044676438e-01
1.096251278773665547e-04,-3.577408165562487568e-03,9.285046059978304678e-01
1.090498543076233744e-04,-3.577425925584152254e-03,9.236188615951904657e-01
1.084775976701335567e-04,-3.577443499666592419e-03,9.187587639583998378e-01
1.079083421728103335e-04,-3.577460889756191222e-03,9.139241784597416096e-01
1.073420721057641932e-04,-3.577478097778965301e-03,9.091149711782008369e-01
1.067787718408834294e-04,-3.577495125640772506e-03,9.043310088957555726e-01
1.062184258314131051e-04,-3.577511975227529173e-03,8.995721590936858192e-01
1.056610186115406299e-04,-3.577528648405416990e-03,8.948382899489024656e-01
1.051065347959803203e-04,-3.577545147021085961e-03,8.901292703302963183e-01
1.045549590795625964e-04,-3.577561472901863437e-03,8.854449697951063403e-01
1.040062762368203984e-04,-3.577577627855949710e-03,8.807852585853042093e-01
1.034604711215841432e-04,-3.577593613672626609e-03,8.761500076240018586e-01
1.029175286665739552e-04,-3.577609432122450493e-03,8.715390885118754483e-01
1.023774338829941616e-04,-3.577625084957444367e-03,8.669523735236085438e-01
1.018401718601322865e-04,-3.577640573911301716e-03,8.623897356043531692e-01
1.013057277649575573e-04,-3.577655900699567779e-03,8.578510483662116215e-01
1.007740868417243035e-04,-3.577671067019835578e-03,8.533361860847351599e-01
1.002452344115725230e-04,-3.577686074551932830e-03,8.488450236954411254e-01
9.971915587213457471e-05,-3.577700924958108868e-03,8.443774367903482680e-01
9.919583669714314379e-05,-3.577715619883209842e-03,8.399333016145310582e-01
9.867526243603941163e-05,-3.577730160954876917e-03,8.355124950626916513e-01
9.815741871358348817e-05,-3.577744549783708032e-03,8.311148946757489497e-01
9.764229122946998097e-05,-3.577758787963451325e-03,8.267403786374474262e-01
9.712986575794074534e-05,-3.577772877071174265e-03,8.223888257709826011e-01
9.662012814740203893e-05,-3.577786818667435826e-03,8.180601155356438392e-01
9.611306432004332984e-05,-3.577800614296464728e-03,8.137541280234755758e-01
9.560866027145889653e-05,-3.577814265486327274e-03,8.094707439559567508e-01
9.510690207026767937e-05,-3.577827773749098651e-03,8.052098446806941201e-01
9.460777585774011187e-05,-3.577841140581028163e-03,8.009713121681379944e-01
9.411126784742375917e-05,-3.577854367462700563e-03,7.967550290083121878e-01
9.361736432477004083e-05,-3.577867455859211690e-03,7.925608784075603985e-01
9.312605164676568338e-05,-3.577880407220319393e-03,7.883887441853129063e-01
9.263731624156361724e-05,-3.577893222980609196e-03,7.842385107708673697e-01
9.215114460811606916e-05,-3.577905904559650421e-03,7.801100632001871649e-01
9.166752331580948425e-05,-3.577918453362154486e-03,7.760032871127168219e-01
9.118643900410459795e-05,-3.577930870778135361e-03,7.719180687482146697e-01
9.070787838217099215e-05,-3.577943158183051389e-03,7.678542949436016896e-01
9.023182822853055530e-05,-3.577955316937969643e-03,7.638118531298260239e-01
8.975827539069918069e-05,-3.577967348389710783e-03,7.597906313287449143e-01
8.928720678483197484e-05,-3.577979253870996502e-03,7.557905181500239600e-01
8.881860939536716487e-05,-3.577991034700601751e-03,7.518114027880498096e-01
8.835247027467572499e-05,-3.578002692183497417e-03,7.478531750188620597e-01
8.788877654271031186e-05,-3.578014227610996044e-03,7.439157251970994755e-01
8.742751538665722211e-05,-3.578025642260892342e-03,7.399989442529637529e-01
8.696867406058736059e-05,-3.578036937397611073e-03,7.361027236891964920e-01
8.651223988511238562e-05,-3.578048114272336724e-03,7.322269555780743788e-01
8.605820024704188430e-05,-3.578059174123162257e-03,7.283715325584201317e-01
8.560654259904020892e-05,-3.578070118175221814e-03,7.245363478326277695e-01
8.515725445928767738e-05,-3.578080947640819524e-03,7.207212951637058662e-01
8.471032341113983552e-05,-3.578091663719577820e-03,7.169262688723320176e-01
8.426573710279310276e-05,-3.578102267598558869e-03,7.131511638339276260e-01
8.382348324694824924e-05,-3.578112760452399881e-03,7.093958754757443419e-01
8.338354962047848094e-05,-3.578123143443445817e-03,7.056602997739691574e-01
8.294592406409635917e-05,-3.578133417721871684e-03,7.019443332508417122e-01
8.251059448202397275e-05,-3.578143584425813074e-03,6.982478729717878085e-01
8.207754884166469579e-05,-3.578153644681494969e-03,6.945708165425683589e-01
8.164677517327747981e-05,-3.578163599603353170e-03,6.909130621064432098e-01
8.121826156964911296e-05,-3.578173450294156160e-03,6.872745083413492884e-01
8.079199618577341817e-05,-3.578183197845132175e-03,6.836550544570937360e-01
8.036796723852849969e-05,-3.578192843336085865e-03,6.800546001925623640e-01
7.994616300635554824e-05,-3.578202387835517986e-03,6.764730458129424306e-01
7.952657182894184735e-05,-3.578211832400746834e-03,6.729102921069594068e-01
7.910918210690302084e-05,-3.578221178078020998e-03,6.693662403841296182e-01
7.869398230146640511e-05,-3.578230425902636895e-03,6.658407924720258775e-01
7.828096093415908355e-05,-3.578239576899058891e-03,6.623338507135577702e-01
7.787010658649383377e-05,-3.578248632081021223e-03,6.588453179642664859e-01
7.746140789966099742e-05,-3.578257592451650725e-03,6.553750975896346365e-01
7.705485357421663645e-05,-3.578266459003573083e-03,6.519230934624092866e-01
7.665043236977640872e-05,-3.578275232719021256e-03,6.484892099599386395e-01
7.624813310470848120e-05,-3.578283914569947363e-03,6.450733519615229339e-01
7.584794465583103763e-05,-3.578292505518130238e-03,6.416754248457808840e-01
7.544985595810658769e-05,-3.578301006515282982e-03,6.382953344880271107e-01
7.505385600434307956e-05,-3.578309418503150974e-03,6.349329872576654488e-01
7.465993384489293897e-05,-3.578317742413622896e-03,6.315882900155963542e-01
7.426807858735411398e-05,-3.578325979168838281e-03,6.282611501116347474e-01
7.387827939627408780e-05,-3.578334129681275989e-03,6.249514753819457313e-01
7.349052549285328174e-05,-3.578342194853866964e-03,6.216591741464890797e-01
7.310480615465381139e-05,-3.578350175580089637e-03,6.183841552064824887e-01
7.272111071530478691e-05,-3.578358072744068814e-03,6.151263278418734881e-01
7.233942856421177398e-05,-3.578365887220673249e-03,6.118856018088272286e-01
7.195974914626681034e-05,-3.578373619875615825e-03,6.086618873372261485e-01
7.158206196156303026e-05,-3.578381271565546362e-03,6.054550951281834070e-01
7.120635656510464044e-05,-3.578388843138146595e-03,6.022651363515694189e-01
7.083262256652444468e-05,-3.578396335432223411e-03,5.990919226435508227e-01
7.046084962979914598e-05,-3.578403749277803830e-03,5.959353661041431049e-01
7.009102747296773852e-05,-3.578411085496226943e-03,5.927953792947757705e-01
6.972314586785030631e-05,-3.578418344900231515e-03,5.896718752358703908e-01
6.935719463976957298e-05,-3.578425528294049227e-03,5.865647674044310866e-01
6.899316366727037799e-05,-3.578432636473493581e-03,5.834739697316473350e-01
6.863104288184651190e-05,-3.578439670226047937e-03,5.803993966005096539e-01
6.827082226766470561e-05,-3.578446630330946610e-03,5.773409628434393870e-01
6.791249186128920235e-05,-3.578453517559273753e-03,5.742985837399279259e-01
6.755604175141168293e-05,-3.578460332674036209e-03,5.712721750141904753e-01
6.720146207857964594e-05,-3.578467076430256761e-03,5.682616528328321426e-01
6.684874303492569609e-05,-3.578473749575050884e-03,5.652669338025246848e-01
6.649787486390085754e-05,-3.578480352847714790e-03,5.622879349676968008e-01
6.614884786000811766e-05,-3.578486886979805222e-03,5.593245738082367469e-01
6.580165236853614699e-05,-3.578493352695220116e-03,5.563767682372063872e-01
6.545627878529417117e-05,-3.578499750710277972e-03,5.534444365985664582e-01
6.511271755635142356e-05,-3.578506081733799811e-03,5.505274976649154883e-01
6.477095917777411782e-05,-3.578512346467187678e-03,5.476258706352391536e-01
6.443099419536701478e-05,-3.578518545604496195e-03,5.447394751326725126e-01
6.409281320441273955e-05,-3.578524679832519300e-03,5.418682312022732317e-01
6.375640684941641129e-05,-3.578530749830856599e-03,5.390120593088071344e-01
6.342176582384796897e-05,-3.578536756271998801e-03,5.361708803345452967e-01
6.308888086988825123e-05,-3.578542699821387132e-03,5.333446155770712460e-01
6.275774277817439866e-05,-3.578548581137506578e-03,5.305331867471015928e-01
6.242834238754972826e-05,-3.578554400871940960e-03,5.277365159663174321e-01
6.210067058481135837e-05,-3.578560159669458372e-03,5.249545257652071806e-01
6.177471830446081501e-05,-3.578565858168071892e-03,5.221871390809208480e-01
6.145047652845554633e-05,-3.578571496999118952e-03,5.194342792551340793e-01
6.112793628596169737e-05,-3.578577076787325516e-03,5.166958700319255193e-01
6.080708865311019171e-05,-3.578582598150875909e-03,5.139718355556649465e-01
6.048792475274964857e-05,-3.578588061701487837e-03,5.112621003689111765e-01
6.017043575420447695e-05,-3.578593468044469206e-03,5.085665894103224005e-01
5.985461287303252937e-05,-3.578598817778796178e-03,5.058852280125766265e-01
5.954044737078465291e-05,-3.578604111497167388e-03,5.032179419003034448e-01
5.922793055476463330e-05,-3.578609349786081566e-03,5.005646571880271178e-01
5.891705377779111091e-05,-3.578614533225897825e-03,4.979253003781184406e-01
5.860780843796033700e-05,-3.578619662390895503e-03,4.952997983587606456e-01
5.830018597841054944e-05,-3.578624737849346159e-03,4.926880784019224135e-01
5.799417788708702612e-05,-3.578629760163566480e-03,4.900900681613449272e-01
5.768977569650944229e-05,-3.578634729889991570e-03,4.875056956705370870e-01
5.738697098353680195e-05,-3.578639647579230469e-03,4.849348893407807171e-01
5.708575536914113098e-05,-3.578644513776122089e-03,4.823775779591501500e-01
5.678612051817228659e-05,-3.578649329019807646e-03,4.798336906865369733e-01
5.648805813913381206e-05,-3.578654093843780960e-03,4.773031570556895975e-01
5.619155998395254382e-05,-3.578658808775950044e-03,4.747859069692607625e-01
5.589661784775283983e-05,-3.578663474338700419e-03,4.722818706978646475e-01
5.560322356863144506e-05,-3.578668091048941950e-03,4.697909788781470253e-01
5.531136902743489798e-05,-3.578672659418176936e-03,4.673131625108628007e-01
5.502104614753438244e-05,-3.578677179952552152e-03,4.648483529589653718e-01
5.473224689460450297e-05,-3.578681653152916090e-03,4.623964819457047071e-01
5.444496327640441149e-05,-3.578686079514868841e-03,4.599574815527361915e-01
5.415918734255657584e-05,-3.578690459528827573e-03,4.575312842182404638e-01
5.387491118432783874e-05,-3.578694793680073372e-03,4.551178227350491379e-01
5.359212693441425780e-05,-3.578699082448806319e-03,4.527170302487857900e-01
5.331082676672381114e-05,-3.578703326310196230e-03,4.503288402560131076e-01
5.303100289616198961e-05,-3.578707525734443375e-03,4.479531866023905851e-01
5.275264757841667074e-05,-3.578711681186820537e-03,4.455900034808418231e-01
5.247575310974610980e-05,-3.578715793127734603e-03,4.432392254297317646e-01
5.220031182676844196e-05,-3.578719862012766026e-03,4.409007873310538672e-01
5.192631610624876524e-05,-3.578723888292728236e-03,4.385746244086256573e-01
5.165375836489183439e-05,-3.578727872413717519e-03,4.362606722262948877e-01
5.138263105913142063e-05,-3.578731814817155514e-03,4.339588666861539656e-01
5.111292668492600739e-05,-3.578735715939844290e-03,4.316691440267655389e-01
5.084463777754896324e-05,-3.578739576214013188e-03,4.293914408213950762e-01
5.057775691138494909e-05,-3.578743396067362616e-03,4.271256939762541061e-01
5.031227669972716560e-05,-3.578747175923121301e-03,4.248718407287528920e-01
5.004818979457279133e-05,-3.578750916200082715e-03,4.226298186457623229e-01
4.978548888641947122e-05,-3.578754617312655817e-03,4.203995656218832422e-01
4.952416670406784949e-05,-3.578758279670914057e-03,4.181810198777271559e-01
4.926421601441784127e-05,-3.578761903680630942e-03,4.159741199582039362e-01
4.900562962227282570e-05,-3.578765489743337708e-03,4.137788047308202932e-01
4.874840037013977327e-05,-3.578769038256360627e-03,4.115950133839862968e-01
4.849252113803335077e-05,-3.578772549612863497e-03,4.094226854253303349e-01
4.823798484327917254e-05,-3.578776024201896656e-03,4.072617606800242318e-01
4.798478444031939618e-05,-3.578779462408434708e-03,4.051121792891151929e-01
4.773291292051914508e-05,-3.578782864613422494e-03,4.029738817078686863e-01
4.748236331197356783e-05,-3.578786231193818029e-03,4.008468087041187622e-01
4.723312867931580574e-05,-3.578789562522631529e-03,3.987309013566274762e-01
4.698520212352557687e-05,-3.578792858968965311e-03,3.966261010534521403e-01
4.673857678174027418e-05,-3.578796120898059766e-03,3.945323494903220096e-01
4.649324582706508107e-05,-3.578799348671332821e-03,3.924495886690231305e-01
4.624920246838628532e-05,-3.578802542646415934e-03,3.903777608957919587e-01
4.600643995018387472e-05,-3.578805703177196599e-03,3.883168087797174151e-01
4.576495155234547443e-05,-3.578808830613857371e-03,3.862666752311513796e-01
4.552473058997967450e-05,-3.578811925302914469e-03,3.842273034601257353e-01
4.528577041323479869e-05,-3.578814987587255504e-03,3.821986369747806811e-01
4.504806440711440032e-05,-3.578818017806178944e-03,3.801806195797992616e-01
4.481160599129523157e-05,-3.578821016295428373e-03,3.781731953748514452e-01
4.457638861994595806e-05,-3.578823983387238901e-03,3.761763087530449190e-01
4.434240578154649012e-05,-3.578826919410357972e-03,3.741899043993844876e-01
4.410965099870989579e-05,-3.578829824690096546e-03,3.722139272892410200e-01
4.387811782800256561e-05,-3.578832699548359017e-03,3.702483226868260591e-01
4.364779985976754181e-05,-3.578835544303679648e-03,3.682930361436759781e-01
4.341869071794856591e-05,-3.578838359271255092e-03,3.663480134971444646e-01
4.319078405991189003e-05,-3.578841144762983859e-03,3.644132008689007218e-01
4.296407357627422764e-05,-3.578843901087500577e-03,3.624885446634376063e-01
4.273855299072835956e-05,-3.578846628550204183e-03,3.605739915665876483e-01
4.251421605986956001e-05,-3.578849327453299985e-03,3.586694885440457892e-01
4.229105657302350662e-05,-3.578851998095825687e-03,3.567749828399000012e-01
4.206906835207586417e-05,-3.578854640773691288e-03,3.548904219751704003e-01
4.184824525130167181e-05,-3.578857255779708570e-03,3.530157537463555206e-01
4.162858115719485908e-05,-3.578859843403618419e-03,3.511509262239853046e-01
4.141006998830247136e-05,-3.578862403932133764e-03,3.492958877511842530e-01
4.119270569505405037e-05,-3.578864937648964292e-03,3.474505869422390147e-01
4.097648225959661856e-05,-3.578867444834847242e-03,3.456149726811755252e-01
4.076139369562875554e-05,-3.578869925767582966e-03,3.437889941203435828e-01
4.054743404823479646e-05,-3.578872380722060518e-03,3.419726006790074213e-01
4.033459739372121234e-05,-3.578874809970291910e-03,3.401657420419451072e-01
4.012287783945314631e-05,-3.578877213781443342e-03,3.383683681580545999e-01
3.991226952369158668e-05,-3.578879592421859487e-03,3.365804292389672492e-01
3.970276661543294577e-05,-3.578881946155099483e-03,3.348018757576687876e-01
3.949436331424783901e-05,-3.578884275241959057e-03,3.330326584471281492e-01
3.928705385011907800e-05,-3.578886579940506948e-03,3.312727282989312294e-01
3.908083248328585716e-05,-3.578888860506107897e-03,3.295220365619242475e-01
3.887569350408259382e-05,-3.578891117191452132e-03,3.277805347408629943e-01
3.867163123278383988e-05,-3.578893350246587033e-03,3.260481745950697396e-01
3.846864001944621191e-05,-3.578895559918940979e-03,3.243249081370969122e-01
3.826671424375252355e-05,-3.578897746453347638e-03,3.226106876313978300e-01
3.806584831485764582e-05,-3.578899910092083261e-03,3.209054655930042022e-01
3.786603667123336457e-05,-3.578902051074882729e-03,3.192091947862109036e-01
3.766727378051580615e-05,-3.578904169638975116e-03,3.175218282232676881e-01
3.746955413935106733e-05,-3.578906266019101032e-03,3.158433191630765080e-01
3.727287227324651696e-05,-3.578908340447547760e-03,3.141736211098984932e-01
3.707722273641643950e-05,-3.578910393154166592e-03,3.125126878120643714e-01
3.688260011163490198e-05,-3.578912424366403194e-03,3.108604732606948806e-01
3.668899901008292893e-05,-3.578914434309322760e-03,3.092169316884247898e-01
3.649641407120287370e-05,-3.578916423205634727e-03,3.075820175681359681e-01
3.630483996254879180e-05,-3.578918391275714463e-03,3.059556856116962265e-01
3.611427137963918590e-05,-3.578920338737629717e-03,3.043378907687042112e-01
3.592470304581209543e-05,-3.578922265807168816e-03,3.027285882252422899e-01
3.573612971207782129e-05,-3.578924172697856704e-03,3.011277334026344898e-01
3.554854615697551975e-05,-3.578926059620984000e-03,2.995352819562123181e-01
3.536194718642753315e-05,-3.578927926785629553e-03,2.979511897740860227e-01
3.517632763359674952e-05,-3.578929774398680822e-03,2.963754129759219036e-01
3.499168235874484316e-05,-3.578931602664863366e-03,2.948079079117280621e-01
3.480800624908960040e-05,-3.578933411786755156e-03,2.932486311606449236e-01
3.462529421866392592e-05,-3.578935201964813465e-03,2.916975395297423668e-01
3.444354120817397485e-05,-3.578936973397398285e-03,2.901545900528224031e-01
3.426274218486284145e-05,-3.578938726280793577e-03,2.886197399892303506e-01
3.408289214236863033e-05,-3.578940460809225052e-03,2.870929468226701142e-01
3.390398610058817895e-05,-3.578942177174887496e-03,2.855741682600271836e-01
3.372601910553670767e-05,-3.578943875567960810e-03,2.840633622301954597e-01
3.354898622921539801e-05,-3.578945556176637340e-03,2.825604868829137972e-01
3.337288256947184905e-05,-3.578947219187134012e-03,2.810655005876057100e-01
3.319770324986527724e-05,-3.578948864783720960e-03,2.795783619322259050e-01
3.302344341953399975e-05,-3.578950493148739739e-03,2.780990297221143104e-01
3.285009825305833714e-05,-3.578952104462621107e-03,2.766274629788535444e-01
3.267766295032959427e-05,-3.578953698903904971e-03,2.751636209391347121e-01
3.250613273641685932e-05,-3.578955276649267714e-03,2.737074630536276976e-01
3.233550286143605250e-05,-3.578956837873527395e-03,2.722589489858591727e-01
3.216576860041587117e-05,-3.578958382749679312e-03,2.708180386110931037e-01
3.199692525317074176e-05,-3.578959911448902510e-03,2.693846920152210833e-01
3.182896814416915011e-05,-3.578961424140587530e-03,2.679588694936557713e-01
3.166189262240579375e-05,-3.578962920992346825e-03,2.665405315502322736e-01
3.149569406127063063e-05,-3.578964402170041643e-03,2.651296388961122963e-01
3.133036785842344363e-05,-3.578965867837794607e-03,2.637261524486966824e-01
3.116590943566518648e-05,-3.578967318158009659e-03,2.623300333305423337e-01
3.100231423881414755e-05,-3.578968753291392017e-03,2.609412428682865714e-01
3.083957773757727531e-05,-3.578970173396962481e-03,2.595597425915749379e-01
3.067769542542554939e-05,-3.578971578632077818e-03,2.581854942319952162e-01
3.051666281947070669e-05,-3.578972969152447673e-03,2.568184597220181664e-01
3.035647546033996190e-05,-3.578974345112149753e-03,2.554586011939421475e-01
3.019712891205500373e-05,-3.578975706663648036e-03,2.541058809788452888e-01
3.003861876190587509e-05,-3.578977053957812723e-03,2.527602616055406592e-01
2.988094062033325244e-05,-3.578978387143932384e-03,2.514217057995397075e-01
2.972409012080372192e-05,-3.578979706369734334e-03,2.500901764820187001e-01
2.956806291969129634e-05,-3.578981011781395480e-03,2.487656367687923475e-01
2.941285469615592018e-05,-3.578982303523563571e-03,2.474480499692913171e-01
2.925846115202572863e-05,-3.578983581739377147e-03,2.461373795855469060e-01
2.910487801167543399e-05,-3.578984846570465971e-03,2.448335893111784622e-01
2.895210102191261655e-05,-3.578986098156985724e-03,2.435366430303894658e-01
2.880012595185530124e-05,-3.578987336637619743e-03,2.422465048169655799e-01
2.864894859281901429e-05,-3.578988562149601135e-03,2.409631389332805296e-01
2.849856475819826970e-05,-3.578989774828725788e-03,2.396865098293058660e-01
2.834897028335126780e-05,-3.578990974809367117e-03,2.384165821416259490e-01
2.820016102548529840e-05,-3.578992162224490375e-03,2.371533206924584802e-01
2.805213286354221860e-05,-3.578993337205672604e-03,2.358966904886805327e-01
2.790488169808306318e-05,-3.578994499883109137e-03,2.346466567208581877e-01
2.775840345117744915e-05,-3.578995650385634851e-03,2.334031847622832778e-01
2.761269406628817267e-05,-3.578996788840732406e-03,2.321662401680134602e-01
2.746774950816063053e-05,-3.578997915374554362e-03,2.309357886739183130e-01
2.732356576271206217e-05,-3.578999030111925349e-03,2.297117961957308996e-01
2.718013883691786087e-05,-3.579000133176372857e-03,2.284942288281026912e-01
2.703746475870397688e-05,-3.579001224690119866e-03,2.272830528436648734e-01
2.689553957683474655e-05,-3.579002304774116499e-03,2.260782346920932329e-01
2.675435936080690474e-05,-3.579003373548047401e-03,2.248797409991805385e-01
2.661392020073656022e-05,-3.579004431130339541e-03,2.236875385659099214e-01
2.647421820725561698e-05,-3.579005477638182598e-03,2.225015943675372476e-01
2.633524951140028109e-05,-3.579006513187536764e-03,2.213218755526745185e-01
2.619701026450750237e-05,-3.579007537893152263e-03,2.201483494423812359e-01
2.605949663810581897e-05,-3.579008551868573251e-03,2.189809835292583495e-01
2.592270482381176189e-05,-3.579009555226159503e-03,2.178197454765483376e-01
2.578663103322309150e-05,-3.579010548077088145e-03,2.166646031172394515e-01
2.565127149781362998e-05,-3.579011530531378809e-03,2.155155244531735959e-01
2.551662246883118027e-05,-3.579012502697894935e-03,2.143724776541613142e-01
2.538268021719236183e-05,-3.579013464684360681e-03,2.132354310570996059e-01
2.524944103337972329e-05,-3.579014416597376107e-03,2.121043531650949054e-01
2.511690122733816385e-05,-3.579015358542417171e-03,2.109792126465897255e-01
2.498505712837598627e-05,-3.579016290623863485e-03,2.098599783344963776e-01
2.485390508505969199e-05,-3.579017212944997448e-03,2.087466192253321917e-01
2.472344146511585745e-05,-3.579018125608021163e-03,2.076391044783617579e-01
2.459366265532826027e-05,-3.579019028714064670e-03,2.065374034147414162e-01
2.446456506144053817e-05,-3.579019922363201565e-03,2.054414855166705467e-01
2.433614510805488728e-05,-3.579020806654458105e-03,2.043513204265457461e-01
2.420839923853393500e-05,-3.579021681685821011e-03,2.032668779461199726e-01
2.408132391490257912e-05,-3.579022547554251785e-03,2.021881280356661037e-01
2.395491561774902041e-05,-3.579023404355698417e-03,2.011150408131444356e-01
2.382917084612980353e-05,-3.579024252185101888e-03,2.000475865533759556e-01
2.370408611746928094e-05,-3.579025091136411353e-03,1.989857356872172245e-01
2.357965796746772338e-05,-3.579025921302589775e-03,1.979294588007431133e-01
2.345588295000160381e-05,-3.579026742775629107e-03,1.968787266344307618e-01
2.333275763703015606e-05,-3.579027555646556794e-03,1.958335100823491159e-01
2.321027861850111029e-05,-3.579028360005445317e-03,1.947937801913532940e-01
2.308844250225570665e-05,-3.579029155941426937e-03,1.937595081602827563e-01
2.296724591393442736e-05,-3.579029943542702367e-03,1.927306653391629987e-01
2.284668549688354181e-05,-3.579030722896542945e-03,1.917072232284116606e-01
2.272675791206321368e-05,-3.579031494089309276e-03,1.906891534780492670e-01
2.260745983795487280e-05,-3.579032257206459476e-03,1.896764278869143006e-01
2.248878797046925787e-05,-3.579033012332554810e-03,1.886690184018819105e-01
2.237073902285456080e-05,-3.579033759551270531e-03,1.876668971170864508e-01
2.225330972560609575e-05,-3.579034498945405859e-03,1.866700362731488205e-01
2.213649682637519565e-05,-3.579035230596896121e-03,1.856784082564068850e-01
2.202029708988044652e-05,-3.579035954586816219e-03,1.846919855981515313e-01
2.190470729781735990e-05,-3.579036670995388442e-03,1.837107409738653052e-01
2.178972424876963088e-05,-3.579037379902003276e-03,1.827346472024658774e-01
2.167534475811955591e-05,-3.579038081385213337e-03,1.817636772455521188e-01
2.156156565796088666e-05,-3.579038775522750283e-03,1.807978042066556712e-01
2.144838379701240893e-05,-3.579039462391534789e-03,1.798370013304965986e-01
2.133579604052756766e-05,-3.579040142067678280e-03,1.788812420022407867e-01
2.122379927021127128e-05,-3.579040814626496380e-03,1.779304997467641980e-01
2.111239038413106176e-05,-3.579041480142518012e-03,1.769847482279185424e-01
2.100156629663231639e-05,-3.579042138689489307e-03,1.760439612478018889e-01
2.089132393825336831e-05,-3.579042790340383577e-03,1.751081127460334674e-01
2.078166025563912272e-05,-3.579043435167412589e-03,1.741771767990310249e-01
2.067257221145856941e-05,-3.579044073242032206e-03,1.732511276192936767e-01
2.056405678431834136e-05,-3.579044704634947154e-03,1.723299395546863677e-01
2.045611096868102347e-05,-3.579045329416124036e-03,1.714135870877298296e-01
2.034873177478188251e-05,-3.579045947654795230e-03,1.705020448348943396e-01
2.024191622854557658e-05,-3.579046559419469305e-03,1.695952875458961173e-01
2.013566137150367113e-05,-3.579047164777938387e-03,1.686932901029978005e-01
2.002996426071293072e-05,-3.579047763797283798e-03,1.677960275203126683e-01
1.992482196867437658e-05,-3.579048356543882998e-03,1.669034749431125009e-01
1.982023158325159197e-05,-3.579048943083420857e-03,1.660156076471390740e-01
1.971619020759057589e-05,-3.579049523480892260e-03,1.651324010379191243e-01
1.961269496003961382e-05,-3.579050097800614682e-03,1.642538306500833378e-01
1.950974297406988359e-05,-3.579050666106228188e-03,1.633798721466887816e-01
1.940733139819535995e-05,-3.579051228460708011e-03,1.625105013185446923e-01
1.930545739589419976e-05,-3.579051784926371056e-03,1.616456940835416245e-01
1.920411814553097757e-05,-3.579052335564880238e-03,1.607854264859849003e-01
1.910331084027652582e-05,-3.579052880437255321e-03,1.599296746959300297e-01
1.900303268803329770e-05,-3.579053419603874658e-03,1.590784150085236548e-01
1.890328091135518021e-05,-3.579053953124484728e-03,1.582316238433461031e-01
1.880405274737291461e-05,-3.579054481058205773e-03,1.573892777437587986e-01
1.870534544771545451e-05,-3.579055003463540909e-03,1.565513533762535325e-01
1.860715627843689739e-05,-3.579055520398379160e-03,1.557178275298076453e-01
1.850948251993794096e-05,-3.579056031920003697e-03,1.548886771152399866e-01
1.841232146689117483e-05,-3.579056538085100079e-03,1.540638791645709826e-01
1.831567042816881845e-05,-3.579057038949756252e-03,1.532434108303880604e-01
1.821952672676412321e-05,-3.579057534569475563e-03,1.524272493852109611e-01
1.812388769972065878e-05,-3.579058024999179789e-03,1.516153722208631038e-01
1.802875069805686615e-05,-3.579058510293215215e-03,1.508077568478452812e-01
1.793411308669293837e-05,-3.579058990505359136e-03,1.500043808947121027e-01
1.783997224437856865e-05,-3.579059465688824195e-03,1.492052221074528229e-01
1.774632556362064424e-05,-3.579059935896271392e-03,1.484102583488752236e-01
1.765317045060930720e-05,-3.579060401179802280e-03,1.476194675979915494e-01
1.756050432514809457e-05,-3.579060861590979345e-03,1.468328279494092448e-01
1.746832462058160168e-05,-3.579061317180822106e-03,1.460503176127237179e-01
1.737662878372469736e-05,-3.579061767999817088e-03,1.452719149119150732e-01
1.728541427479188139e-05,-3.579062214097920424e-03,1.444975982847476748e-01
1.719467856732570339e-05,-3.579062655524566962e-03,1.437273462821717362e-01
1.710441914812996586e-05,-3.579063092328674169e-03,1.429611375677311003e-01
1.701463351719663197e-05,-3.579063524558644301e-03,1.421989509169705734e-01
1.692531918763904889e-05,-3.579063952262377842e-03,1.414407652168488683e-01
1.683647368562193883e-05,-3.579064375487267437e-03,1.406865594651533213e-01
1.674809455029306718e-05,-3.579064794280214373e-03,1.399363127699181364e-01
1.666017933371563914e-05,-3.579065208687628140e-03,1.391900043488457639e-01
1.657272560080066240e-05,-3.579065618755429470e-03,1.384476135287316945e-01
1.648573092923942175e-05,-3.579066024529061613e-03,1.377091197448917781e-01
1.639919290943425944e-05,-3.579066426053490336e-03,1.369745025405913474e-01
1.631310914443568819e-05,-3.579066823373211730e-03,1.362437415664797535e-01
1.622747724987326981e-05,-3.579067216532252644e-03,1.355168165800263169e-01
1.614229485389110521e-05,-3.579067605574181524e-03,1.347937074449599426e-01
1.605755959708027509e-05,-3.579067990542112322e-03,1.340743941307102893e-01
1.597326913241593242e-05,-3.579068371478704488e-03,1.333588567118538515e-01
1.588942112519129831e-05,-3.579068748426171651e-03,1.326470753675621783e-01
1.580601325295158662e-05,-3.579069121426284653e-03,1.319390303810515086e-01
1.572304320543276013e-05,-3.579069490520381085e-03,1.312347021390381785e-01
1.564050868449543143e-05,-3.579069855749359656e-03,1.305340711311948620e-01
1.555840740406044782e-05,-3.579070217153694500e-03,1.298371179496090044e-01
1.547673709004834870e-05,-3.579070574773434311e-03,1.291438232882465842e-01
1.539549548031490645e-05,-3.579070928648210581e-03,1.284541679424171801e-01
1.531468032458823588e-05,-3.579071278817237602e-03,1.277681328082416468e-01
1.523428938440591557e-05,-3.579071625319322006e-03,1.270856988821223998e-01
1.515432043305521619e-05,-3.579071968192857993e-03,1.264068472602178084e-01
1.507477125550947643e-05,-3.579072307475845115e-03,1.257315591379183084e-01
1.499563964836829234e-05,-3.579072643205879166e-03,1.250598158093258194e-01
1.491692341979469796e-05,-3.579072975420167363e-03,1.243915986667350343e-01
1.483862038945533766e-05,-3.579073304155521839e-03,1.237268892001176096e-01
1.476072838846158556e-05,-3.579073629448374823e-03,1.230656689966107137e-01
1.468324525930660246e-05,-3.579073951334773001e-03,1.224079197400055330e-01
1.460616885580874389e-05,-3.579074269850386625e-03,1.217536232102413157e-01
1.452949704304946920e-05,-3.579074585030512980e-03,1.211027612828996236e-01
1.445322769731591444e-05,-3.579074896910079857e-03,1.204553159287027608e-01
1.437735870604198288e-05,-3.579075205523649019e-03,1.198112692130146872e-01
1.430188796774777201e-05,-3.579075510905420539e-03,1.191706032953428612e-01
1.422681339198452828e-05,-3.579075813089235402e-03,1.185333004288452313e-01
1.415213289927494479e-05,-3.579076112108580277e-03,1.178993429598385323e-01
1.407784442105652019e-05,-3.579076407996594454e-03,1.172687133273094401e-01
1.400394589962258831e-05,-3.579076700786064640e-03,1.166413940624273782e-01
1.393043528806652741e-05,-3.579076990509439705e-03,1.160173677880605853e-01
1.385731055022591536e-05,-3.579077277198824177e-03,1.153966172182955691e-01
1.378456966062513972e-05,-3.579077560885990383e-03,1.147791251579580729e-01
1.371221060441879226e-05,-3.579077841602374549e-03,1.141648745021361933e-01
1.364023137733665247e-05,-3.579078119379087205e-03,1.135538482357066892e-01
1.356862998562939611e-05,-3.579078394246907983e-03,1.129460294328647751e-01
1.349740444601043626e-05,-3.579078666236298629e-03,1.123414012566536641e-01
1.342655278560405610e-05,-3.579078935377402564e-03,1.117399469584994809e-01
1.335607304188796481e-05,-3.579079201700044888e-03,1.111416498777460932e-01
1.328596326264144563e-05,-3.579079465233738020e-03,1.105464934411943961e-01
1.321622150589028347e-05,-3.579079726007687329e-03,1.099544611626432911e-01
1.314684583985254291e-05,-3.579079984050791141e-03,1.093655366424325509e-01
1.307783434288665866e-05,-3.579080239391646372e-03,1.087797035669895718e-01
1.300918510343483173e-05,-3.579080492058548096e-03,1.081969457083754999e-01
1.294089621997506028e-05,-3.579080742079498653e-03,1.076172469238379642e-01
1.287296580096373446e-05,-3.579080989482204614e-03,1.070405911553621858e-01
1.280539196478612398e-05,-3.579081234294080247e-03,1.064669624292267774e-01
1.273817283970367740e-05,-3.579081476542260963e-03,1.058963448555615555e-01
1.267130656380134516e-05,-3.579081716253589441e-03,1.053287226279066013e-01
1.260479128493803832e-05,-3.579081953454630368e-03,1.047640800227757490e-01
1.253862516069238454e-05,-3.579082188171670877e-03,1.042024013992195047e-01
1.247280635831476403e-05,-3.579082420430721410e-03,1.036436711983930448e-01
1.240733305467460376e-05,-3.579082650257523531e-03,1.030878739431247415e-01
1.234220343621008232e-05,-3.579082877677542546e-03,1.025349942374871731e-01
1.227741569887779417e-05,-3.579083102715985287e-03,1.019850167663702012e-01
1.221296804810477706e-05,-3.579083325397790141e-03,1.014379262950581007e-01
1.214885869873662109e-05,-3.579083545747632680e-03,1.008937076688068285e-01
1.208508587498871184e-05,-3.579083763789932173e-03,1.003523458124243040e-01
1.202164781039670938e-05,-3.579083979548853753e-03,9.981382572985240953e-02
1.195854274776776771e-05,-3.579084193048307980e-03,9.927813250375147613e-02
1.189576893913337357e-05,-3.579084404311954747e-03,9.874525129508808508e-02
1.183332464569900906e-05,-3.579084613363206751e-03,9.821516734272343896e-02
1.177120813779698032e-05,-3.579084820225231223e-03,9.768786596300468861e-02
1.170941769483765893e-05,-3.579085024920952100e-03,9.716333254935768937e-02
1.164795160526308145e-05,-3.579085227473055228e-03,9.664155257188289383e-02
1.158680816649821117e-05,-3.579085427903986628e-03,9.612251157695236858e-02
1.152598568490451727e-05,-3.579085626235957700e-03,9.560619518680947559e-02
1.146548247573360827e-05,-3.579085822490952161e-03,9.509258909917103764e-02
1.140529686308002518e-05,-3.579086016690715202e-03,9.458167908683115521e-02
1.134542717983407023e-05,-3.579086208856768671e-03,9.407345099726646676e-02
1.128587176763698528e-05,-3.579086399010410202e-03,9.356789075224467012e-02
1.122662897683455645e-05,-3.579086587172714082e-03,9.306498434743458448e-02
1.116769716643148443e-05,-3.579086773364529954e-03,9.256471785201833558e-02
1.110907470404501282e-05,-3.579086957606492352e-03,9.206707740830487319e-02
1.105075996586009978e-05,-3.579087139919022442e-03,9.157204923134569519e-02
1.099275133658692236e-05,-3.579087320322321512e-03,9.107961960855487371e-02
1.093504720941216704e-05,-3.579087498836383118e-03,9.058977489932744376e-02
1.087764598595653577e-05,-3.579087675480993082e-03,9.010250153466177470e-02
1.082054607623148294e-05,-3.579087850275724288e-03,8.961778601678456468e-02
1.076374589859363818e-05,-3.579088023239949262e-03,8.913561491877648735e-02
1.070724387970152813e-05,-3.579088194392837565e-03,8.865597488420043359e-02
1.065103845447153235e-05,-3.579088363753355363e-03,8.817885262673104407e-02
1.059512806603465588e-05,-3.579088531340272796e-03,8.770423492978648983e-02
1.053951116569482643e-05,-3.579088697172161382e-03,8.723210864616337545e-02
1.048418621288408290e-05,-3.579088861267400948e-03,8.676246069767171165e-02
1.042915167512087940e-05,-3.579089023644175301e-03,8.629527807477288537e-02
1.037440602796841625e-05,-3.579089184320479594e-03,8.583054783622001693e-02
1.031994775498981505e-05,-3.579089343314122932e-03,8.536825710869798411e-02
1.026577534770878412e-05,-3.579089500642723166e-03,8.490839308646773442e-02
1.021188730556716354e-05,-3.579089656323717304e-03,8.445094303101180477e-02
1.015828213588244475e-05,-3.579089810374358471e-03,8.399589427068075709e-02
1.010495835380768217e-05,-3.579089962811719382e-03,8.354323420034290293e-02
1.005191448228900264e-05,-3.579090113652693209e-03,8.309295028103429182e-02
9.999149052026296312e-06,-3.579090262913998347e-03,8.264503003961215510e-02
9.946660601431522319e-06,-3.579090410612174086e-03,8.219946106840922417e-02
9.894447676587832629e-06,-3.579090556763592310e-03,8.175623102488949190e-02
9.842508831210230774e-06,-3.579090701384445797e-03,8.131532763130672192e-02
9.790842626605473305e-06,-3.579090844490767295e-03,8.087673867436448449e-02
9.739447631631956002e-06,-3.579090986098412176e-03,8.044045200487787151e-02
9.688322422658812353e-06,-3.579091126223077953e-03,8.000645553743600258e-02
9.637465583529750325e-06,-3.579091264880291268e-03,7.957473725006879162e-02
9.586875705520568581e-06,-3.579091402085420471e-03,7.914528518391299172e-02
9.536551387301410999e-06,-3.579091537853671279e-03,7.871808744288090465e-02
9.486491234898224975e-06,-3.579091672200088083e-03,7.829313219333108864e-02
9.436693861653457405e-06,-3.579091805139562182e-03,7.787040766374019041e-02
9.387157888189059672e-06,-3.579091936686828752e-03,7.744990214437771914e-02
9.337881942366399267e-06,-3.579092066856461637e-03,7.703160398698093159e-02
9.288864659249280033e-06,-3.579092195662890268e-03,7.661550160443221513e-02
9.240104681066213613e-06,-3.579092323120389683e-03,7.620158347043833047e-02
9.191600657172631627e-06,-3.579092449243085738e-03,7.578983811921109759e-02
9.143351244013965190e-06,-3.579092574044955531e-03,7.538025414515019118e-02
9.095355105086269746e-06,-3.579092697539829147e-03,7.497282020252582502e-02
9.047610910903241600e-06,-3.579092819741395287e-03,7.456752500516637683e-02
9.000117338955287595e-06,-3.579092940663197372e-03,7.416435732614432008e-02
8.952873073674927202e-06,-3.579093060318634407e-03,7.376330599746544481e-02
8.905876806401406874e-06,-3.579093178720971387e-03,7.336435990976060417e-02
8.859127235341362141e-06,-3.579093295883326725e-03,7.296750801197644798e-02
8.812623065535791792e-06,-3.579093411818687429e-03,7.257273931107034726e-02
8.766363008821524659e-06,-3.579093526539899994e-03,7.218004287170477762e-02
8.720345783798962900e-06,-3.579093640059681676e-03,7.178940781594594922e-02
8.674570115792755963e-06,-3.579093752390613559e-03,7.140082332296104894e-02
8.629034736820348549e-06,-3.579093863545141849e-03,7.101427862872003449e-02
8.583738385552642714e-06,-3.579093973535589154e-03,7.062976302569574927e-02
8.538679807282550921e-06,-3.579094082374143209e-03,7.024726586256825611e-02
8.493857753888804020e-06,-3.579094190072868147e-03,6.986677654392978165e-02
8.449270983801356722e-06,-3.579094296643701035e-03,6.948828452999086802e-02
8.404918261967545250e-06,-3.579094402098448400e-03,6.911177933628886993e-02
8.360798359817508065e-06,-3.579094506448801845e-03,6.873725053339735380e-02
8.316910055229557463e-06,-3.579094609706325470e-03,6.836468774663681525e-02
8.273252132497936419e-06,-3.579094711882462379e-03,6.799408065578792237e-02
8.229823382297431249e-06,-3.579094812988538148e-03,6.762541899480514762e-02
8.186622601651119977e-06,-3.579094913035757355e-03,6.725869255153273107e-02
8.143648593896548620e-06,-3.579095012035207919e-03,6.689389116742176788e-02
8.100900168651907466e-06,-3.579095109997861967e-03,6.653100473724829489e-02
8.058376141784582436e-06,-3.579095206934578000e-03,6.617002320883395849e-02
8.016075335377316117e-06,-3.579095302856097859e-03,6.581093658276741809e-02
7.973996577695190418e-06,-3.579095397773054098e-03,6.545373491212690131e-02
7.932138703154935179e-06,-3.579095491695966080e-03,6.509840830220552099e-02
7.890500552291116308e-06,-3.579095584635243448e-03,6.474494691023689741e-02
7.849080971723887545e-06,-3.579095676601184821e-03,6.439334094512205731e-02
7.807878814127516408e-06,-3.579095767603983867e-03,6.404358066715817865e-02
7.766892938199733464e-06,-3.579095857653728872e-03,6.369565638776966687e-02
7.726122208627883193e-06,-3.579095946760397096e-03,6.334955846923881473e-02
7.685565496059045752e-06,-3.579096034933866490e-03,6.300527732443916840e-02
7.645221677068579863e-06,-3.579096122183907883e-03,6.266280341657017028e-02
7.605089634129444128e-06,-3.579096208520192793e-03,6.232212725889343247e-02
7.565168255579153426e-06,-3.579096293952287785e-03,6.198323941446874652e-02
7.525456435590687565e-06,-3.579096378489664450e-03,6.164613049589297983e-02
7.485953074142588483e-06,-3.579096462141688993e-03,6.131079116504083160e-02
7.446657076986734871e-06,-3.579096544917636114e-03,6.097721213280546393e-02
7.407567355619206791e-06,-3.579096626826677729e-03,6.064538415884153377e-02
7.368682827249631544e-06,-3.579096707877893382e-03,6.031529805130915467e-02
7.330002414771296965e-06,-3.579096788080265903e-03,5.998694466661921854e-02
7.291525046731238455e-06,-3.579096867442683148e-03,5.966031490918000807e-02
7.253249657301163724e-06,-3.579096945973942769e-03,5.933539973114577981e-02
7.215175186245966040e-06,-3.579097023682747004e-03,5.901219013216478515e-02
7.177300578897783839e-06,-3.579097100577711358e-03,5.869067715913166977e-02
7.139624786123745717e-06,-3.579097176667355058e-03,5.837085190593856165e-02
7.102146764297645644e-06,-3.579097251960111897e-03,5.805270551322801870e-02
7.064865475272426253e-06,-3.579097326464330663e-03,5.773622916814852984e-02
7.027779886349493377e-06,-3.579097400188263872e-03,5.742141410410965541e-02
6.990888970251188325e-06,-3.579097473140085972e-03,5.710825160053932537e-02
6.954191705093256773e-06,-3.579097545327882511e-03,5.679673298264319853e-02
6.917687074353384873e-06,-3.579097616759652732e-03,5.648684962116262004e-02
6.881374066846812331e-06,-3.579097687443313046e-03,5.617859293213704058e-02
6.845251676695668967e-06,-3.579097757386702234e-03,5.587195437666542946e-02
6.809318903302992825e-06,-3.579097826597566270e-03,5.556692546067053956e-02
6.773574751323649840e-06,-3.579097895083579572e-03,5.526349773466321391e-02
6.738018230636795100e-06,-3.579097962852335457e-03,5.496166279350797601e-02
6.702648356318329878e-06,-3.579098029911339639e-03,5.466141227618978582e-02
6.667464148615750682e-06,-3.579098096268027145e-03,5.436273786558383503e-02
6.632464632919038425e-06,-3.579098161929754503e-03,5.406563128822476638e-02
6.597648839733112917e-06,-3.579098226903795841e-03,5.377008431407669792e-02
6.563015804652682760e-06,-3.579098291197354599e-03,5.347608875630596725e-02
6.528564568333916332e-06,-3.579098354817557021e-03,5.318363647105355668e-02
6.494294176470061637e-06,-3.579098417771455626e-03,5.289271935721075873e-02
6.460203679762335479e-06,-3.579098480066025302e-03,5.260332935619353723e-02
6.426292133895545848e-06,-3.579098541708171551e-03,5.231545845171985815e-02
6.392558599511343476e-06,-3.579098602704728314e-03,5.202909866958763119e-02
6.359002142183053938e-06,-3.579098663062454510e-03,5.174424207745450394e-02
6.325621832387354567e-06,-3.579098722788040098e-03,5.146088078461672627e-02
6.292416745480681204e-06,-3.579098781888106519e-03,5.117900694179111643e-02
6.259385961673266628e-06,-3.579098840369202787e-03,5.089861274089781118e-02
6.226528566003970980e-06,-3.579098898237811129e-03,5.061969041484434828e-02
6.193843648313536695e-06,-3.579098955500345253e-03,5.034223223730981828e-02
6.161330303220991859e-06,-3.579099012163154681e-03,5.006623052253136863e-02
6.128987630097681869e-06,-3.579099068232514773e-03,4.979167762509118661e-02
6.096814733042118489e-06,-3.579099123714644080e-03,4.951856593970439813e-02
6.064810720855575136e-06,-3.579099178615692631e-03,4.924688790100838903e-02
6.032974707017705032e-06,-3.579099232941743668e-03,4.897663598335359053e-02
6.001305809661380094e-06,-3.579099286698818414e-03,4.870780270059473643e-02
5.969803151549084128e-06,-3.579099339892876947e-03,4.844038060588396616e-02
5.938465860046950415e-06,-3.579099392529812990e-03,4.817436229146358079e-02
5.907293067103538462e-06,-3.579099444615463886e-03,4.790974038846241428e-02
5.876283909221495661e-06,-3.579099496155601062e-03,4.764650756668956794e-02
5.845437527438694715e-06,-3.579099547155937394e-03,4.738465653443361958e-02
5.814753067299904621e-06,-3.579099597622125480e-03,4.712418003825893237e-02
5.784229678836348378e-06,-3.579099647559759803e-03,4.686507086280578688e-02
5.753866516539728719e-06,-3.579099696974375432e-03,4.660732183058959727e-02
5.723662739341008243e-06,-3.579099745871448020e-03,4.635092580180292382e-02
5.693617510586010631e-06,-3.579099794256400315e-03,4.609587567411765202e-02
5.663729998011828239e-06,-3.579099842134593045e-03,4.584216438248778919e-02
5.633999373724003026e-06,-3.579099889511332729e-03,4.558978489895360031e-02
5.604424814174513020e-06,-3.579099936391872110e-03,4.533873023244752026e-02
5.575005500137372682e-06,-3.579099982781407552e-03,4.508899342859967047e-02
5.545740616688190617e-06,-3.579100028685080776e-03,4.484056756954637318e-02
5.516629353179779258e-06,-3.579100074107979725e-03,4.459344577373810375e-02
5.487670903219342574e-06,-3.579100119055139868e-03,4.434762119574811590e-02
5.458864464648027850e-06,-3.579100163531541163e-03,4.410308702608370379e-02
5.430209239517320572e-06,-3.579100207542117162e-03,4.385983649099731152e-02
5.401704434067810155e-06,-3.579100251091742006e-03,4.361786285229928006e-02
5.373349258704803872e-06,-3.579100294185245598e-03,4.337715940716963675e-02
5.345142927981015184e-06,-3.579100336827403632e-03,4.313771948797470029e-02
5.317084660569823766e-06,-3.579100379022942795e-03,4.289953646208038290e-02
5.289173679247184574e-06,-3.579100420776542505e-03,4.266260373166959330e-02
5.261409210868807082e-06,-3.579100462092826666e-03,4.242691473355936910e-02
5.233790486348926096e-06,-3.579100502976377118e-03,4.219246293901916800e-02
5.206316740638266195e-06,-3.579100543431726691e-03,4.195924185358951980e-02
5.178987212702809997e-06,-3.579100583463358781e-03,4.172724501690162902e-02
5.151801145504911872e-06,-3.579100623075709940e-03,4.149646600249975309e-02
5.124757785980494963e-06,-3.579100662273170756e-03,4.126689841766287975e-02
5.097856385017800826e-06,-3.579100701060088010e-03,4.103853590322709133e-02
5.071096197437732336e-06,-3.579100739440760782e-03,4.081137213340975400e-02
5.044476481972607558e-06,-3.579100777419442613e-03,4.058540081563415808e-02
5.017996501245708986e-06,-3.579100815000343244e-03,4.036061569035512275e-02
4.991655521750834472e-06,-3.579100852187627746e-03,4.013701053088548909e-02
4.965452813832629123e-06,-3.579100888985420857e-03,3.991457914322408401e-02
4.939387651665341710e-06,-3.579100925397799178e-03,3.969331536588378145e-02
4.913459313233948543e-06,-3.579100961428799844e-03,3.947321306972127741e-02
4.887667080312914121e-06,-3.579100997082415754e-03,3.925426615776700379e-02
4.862010238447310762e-06,-3.579101032362599910e-03,3.903646856505652019e-02
4.836488076931583493e-06,-3.579101067273262379e-03,3.881981425846178085e-02
4.811099888791448103e-06,-3.579101101818274195e-03,3.860429723652453876e-02
4.785844970764231514e-06,-3.579101136001463894e-03,3.838991152929051992e-02
4.760722623277629040e-06,-3.579101169826621846e-03,3.817665119814307034e-02
4.735732150431614300e-06,-3.579101203297495922e-03,3.796451033563870425e-02
4.710872859980345753e-06,-3.579101236417796695e-03,3.775348306534456050e-02
4.686144063310920570e-06,-3.579101269191194840e-03,3.754356354167490140e-02
4.661545075425293864e-06,-3.579101301621325469e-03,3.733474594972930466e-02
4.637075214920602965e-06,-3.579101333711782063e-03,3.712702450513117453e-02
4.612733803971859151e-06,-3.579101365466120805e-03,3.692039345386839005e-02
4.588520168311505350e-06,-3.579101396887864918e-03,3.671484707213335669e-02
4.564433637210525613e-06,-3.579101427980492956e-03,3.651037966616377251e-02
4.540473543462718257e-06,-3.579101458747456152e-03,3.630698557208661414e-02
4.516639223362667920e-06,-3.579101489192164105e-03,3.610465915575986756e-02
4.492930016688433906e-06,-3.579101519317988249e-03,3.590339481261618781e-02
4.469345266685825863e-06,-3.579101549128270530e-03,3.570318696750935522e-02
4.445884320046375846e-06,-3.579101578626316896e-03,3.550403007455835147e-02
4.422546526891594514e-06,-3.579101607815395568e-03,3.530591861699429457e-02
4.399331240753318273e-06,-3.579101636698741803e-03,3.510884710700672845e-02
4.376237818558757450e-06,-3.579101665279558770e-03,3.491281008559326410e-02
4.353265620610038751e-06,-3.579101693561012338e-03,3.471780212240769409e-02
4.330414010566119418e-06,-3.579101721546241489e-03,3.452381781560865531e-02
4.307682355427046811e-06,-3.579101749238345741e-03,3.433085179171067869e-02
4.285070025516657765e-06,-3.579101776640395988e-03,3.413889870543620336e-02
4.262576394462122739e-06,-3.579101803755428864e-03,3.394795323956580763e-02
4.240200839179785970e-06,-3.579101830586450209e-03,3.375801010479195785e-02
4.217942739857073694e-06,-3.579101857136435510e-03,3.356906403957280599e-02
4.195801479933610397e-06,-3.579101883408328157e-03,3.338110980998525157e-02
4.173776446087058961e-06,-3.579101909405038150e-03,3.319414220958134126e-02
4.151867028213463571e-06,-3.579101935129449033e-03,3.300815605924307256e-02
4.130072619411506765e-06,-3.579101960584414426e-03,3.282314620703899455e-02
4.108392615965986357e-06,-3.579101985772752820e-03,3.263910752808182186e-02
4.086826417330517333e-06,-3.579102010697257120e-03,3.245603492438625670e-02
4.065373426111798211e-06,-3.579102035360692911e-03,3.227392332472833747e-02
4.044033048051510801e-06,-3.579102059765791946e-03,3.209276768450419065e-02
4.022804692010595876e-06,-3.579102083915259962e-03,3.191256298559020516e-02
4.001687769954293730e-06,-3.579102107811774937e-03,3.173330423620510099e-02
3.980681696933278211e-06,-3.579102131457986228e-03,3.155498647077056157e-02
3.959785891069486706e-06,-3.579102154856513267e-03,3.137760474977423220e-02
3.938999773539606387e-06,-3.579102178009952069e-03,3.120115415963322855e-02
3.918322768557760011e-06,-3.579102200920866988e-03,3.102562981255714558e-02
3.897754303360571037e-06,-3.579102223591801996e-03,3.085102684641280457e-02
3.877293808192202478e-06,-3.579102246025267237e-03,3.067734042459033250e-02
3.856940716287059647e-06,-3.579102268223749873e-03,3.050456573586873138e-02
3.836694463854056514e-06,-3.579102290189711908e-03,3.033269799428208943e-02
3.816554490062449087e-06,-3.579102311925587161e-03,3.016173243898779069e-02
3.796520237025324615e-06,-3.579102333433786028e-03,2.999166433413448865e-02
3.776591149783858216e-06,-3.579102354716693756e-03,2.982248896873060384e-02
3.756766676292373752e-06,-3.579102375776668267e-03,2.965420165651385179e-02
3.737046267403394974e-06,-3.579102396616045800e-03,2.948679773582173549e-02
3.717429376851906373e-06,-3.579102417237134837e-03,2.932027256946231550e-02
3.697915461239629288e-06,-3.579102437642223480e-03,2.915462154458509092e-02
3.678503980022429488e-06,-3.579102457833573375e-03,2.898984007255471160e-02
3.659194395492222009e-06,-3.579102477813420145e-03,2.882592358882263978e-02
3.639986172763602011e-06,-3.579102497583984237e-03,2.866286755280077897e-02
3.620878779759683653e-06,-3.579102517147453571e-03,2.850066744773643163e-02
3.601871687195575756e-06,-3.579102536505997419e-03,2.833931878058622983e-02
3.582964368565013076e-06,-3.579102555661762934e-03,2.817881708189202625e-02
3.564156300126197307e-06,-3.579102574616873419e-03,2.801915790565760386e-02
3.545446960886839748e-06,-3.579102593373430057e-03,2.786033682922572571e-02
3.526835832587656863e-06,-3.579102611933512347e-03,2.770234945315407787e-02
3.508322399691343188e-06,-3.579102630299178973e-03,2.754519140109470965e-02
3.489906149366060112e-06,-3.579102648472464766e-03,2.738885831967219353e-02
3.471586571472838807e-06,-3.579102666455384607e-03,2.723334587836379050e-02
3.453363158549863530e-06,-3.579102684249933428e-03,2.707864976937884166e-02
3.435235405799077068e-06,-3.579102701858081874e-03,2.692476570753945739e-02
3.417202811072824299e-06,-3.579102719281784979e-03,2.677168943016227168e-02
3.399264874858896979e-06,-3.579102736522973057e-03,2.661941669693998827e-02
3.381421100266373889e-06,-3.579102753583556906e-03,2.646794328982328415e-02
3.363670993014609835e-06,-3.579102770465427807e-03,2.631726501290561349e-02
3.346014061415928220e-06,-3.579102787170460563e-03,2.616737769230558647e-02
3.328449816363815948e-06,-3.579102803700501354e-03,2.601827717605149914e-02
3.310977771320348794e-06,-3.579102820057389854e-03,2.586995933396726843e-02
3.293597442300439136e-06,-3.579102836242933645e-03,2.572242005755708341e-02
3.276308347859265982e-06,-3.579102852258931201e-03,2.557565525989135766e-02
3.259110009080468181e-06,-3.579102868107155843e-03,2.542966087549455856e-02
3.242001949561194713e-06,-3.579102883789366148e-03,2.528443286023218314e-02
3.224983695398735545e-06,-3.579102899307300741e-03,2.513996719119823350e-02
3.208054775178717804e-06,-3.579102914662677867e-03,2.499625986660436450e-02
3.191214719961734091e-06,-3.579102929857202759e-03,2.485330690566932982e-02
3.174463063268398700e-06,-3.579102944892558966e-03,2.471110434850738030e-02
3.157799341069900241e-06,-3.579102959770413990e-03,2.456964825602023575e-02
3.141223091771485340e-06,-3.579102974492417554e-03,2.442893470978641304e-02
3.124733856203019306e-06,-3.579102989060198997e-03,2.428895981195407922e-02
3.108331177603252070e-06,-3.579103003475378984e-03,2.414971968513185407e-02
3.092014601609586026e-06,-3.579103017739549558e-03,2.401121047228224267e-02
3.075783676243925079e-06,-3.579103031854297557e-03,2.387342833661432878e-02
3.059637951900866575e-06,-3.579103045821184666e-03,2.373636946147760635e-02
3.043576981335902563e-06,-3.579103059641759992e-03,2.360003005025692463e-02
3.027600319651265870e-06,-3.579103073317557466e-03,2.346440632626645498e-02
3.011707524284116111e-06,-3.579103086850092368e-03,2.332949453264473658e-02
2.995898154996330399e-06,-3.579103100240865667e-03,2.319529093225197736e-02
2.980171773859538816e-06,-3.579103113491360986e-03,2.306179180756546751e-02
2.964527945244910465e-06,-3.579103126603047635e-03,2.292899346057724122e-02
2.948966235808985997e-06,-3.579103139577379748e-03,2.279689221269051713e-02
2.933486214485028558e-06,-3.579103152415796709e-03,2.266548440461945910e-02
2.918087452467285493e-06,-3.579103165119721860e-03,2.253476639628628625e-02
2.902769523202337598e-06,-3.579103177690562063e-03,2.240473456672165131e-02
2.887532002374939695e-06,-3.579103190129713768e-03,2.227538531396351662e-02
2.872374467897789321e-06,-3.579103202438552612e-03,2.214671505495790019e-02
2.857296499898158005e-06,-3.579103214618447291e-03,2.201872022545873012e-02
2.842297680708446852e-06,-3.579103226670745253e-03,2.189139727993005477e-02
2.827377594853604292e-06,-3.579103238596784836e-03,2.176474269144788865e-02
2.812535829038533668e-06,-3.579103250397888333e-03,2.163875295160166620e-02
2.797771972138656856e-06,-3.579103262075365461e-03,2.151342457039794390e-02
2.783085615186536240e-06,-3.579103273630506420e-03,2.138875407616287749e-02
2.768476351362441716e-06,-3.579103285064595772e-03,2.126473801544688860e-02
2.753943775981755746e-06,-3.579103296378902035e-03,2.114137295292859570e-02
2.739487486483964465e-06,-3.579103307574678112e-03,2.101865547131953962e-02
2.725107082421642020e-06,-3.579103318653166499e-03,2.089658217126943648e-02
2.710802165450225612e-06,-3.579103329615594079e-03,2.077514967127272461e-02
2.696572339314638303e-06,-3.579103340463178195e-03,2.065435460757359537e-02
2.682417209841426007e-06,-3.579103351197120576e-03,2.053419363407414308e-02
2.668336384926167624e-06,-3.579103361818612543e-03,2.041466342224157460e-02
2.654329474521674592e-06,-3.579103372328830673e-03,2.029576066101511714e-02
2.640396090628553673e-06,-3.579103382728941133e-03,2.017748205671460529e-02
2.626535847284975642e-06,-3.579103393020097081e-03,2.005982433294997355e-02
2.612748360554091764e-06,-3.579103403203439532e-03,1.994278423052955884e-02
2.599033248514591921e-06,-3.579103413280096922e-03,1.982635850737000591e-02
2.585390131250476262e-06,-3.579103423251187716e-03,1.971054393840687702e-02
2.571818630839259001e-06,-3.579103433117818232e-03,1.959533731550464758e-02
2.558318371343308775e-06,-3.579103442881079612e-03,1.948073544736875218e-02
2.544888978798053709e-06,-3.579103452542057792e-03,1.936673515945682225e-02
2.531530081201753071e-06,-3.579103462101823098e-03,1.925333329389060030e-02
2.518241308505265538e-06,-3.579103471561435011e-03,1.914052670936831901e-02
2.505022292601830591e-06,-3.579103480921943040e-03,1.902831228107764588e-02
2.491872667317619434e-06,-3.579103490184384548e-03,1.891668690060962360e-02
2.478792068400728654e-06,-3.579103499349786492e-03,1.880564747587238142e-02
2.465780133510946792e-06,-3.579103508419166288e-03,1.869519093100517615e-02
2.452836502210321354e-06,-3.579103517393530075e-03,1.858531420629338723e-02
2.439960815952922850e-06,-3.579103526273870548e-03,1.847601425808374082e-02
2.427152718075412652e-06,-3.579103535061175633e-03,1.836728805870040809e-02
2.414411853786023947e-06,-3.579103543756417642e-03,1.825913259636056246e-02
2.401737870155122822e-06,-3.579103552360560648e-03,1.815154487509074155e-02
2.389130416106558366e-06,-3.579103560874561350e-03,1.804452191464461092e-02
2.376589142406639381e-06,-3.579103569299360837e-03,1.793806075041999917e-02
2.364113701655492953e-06,-3.579103577635894123e-03,1.783215843337727577e-02
2.351703748275255121e-06,-3.579103585885086685e-03,1.772681202995631325e-02
2.339358938503779533e-06,-3.579103594047854022e-03,1.762201862199670038e-02
2.327078930382838709e-06,-3.579103602125099058e-03,1.751777530665635241e-02
2.314863383749469476e-06,-3.579103610117719946e-03,1.741407919633130089e-02
2.302711960225743777e-06,-3.579103618026600528e-03,1.731092741857519907e-02
2.290624323210117923e-06,-3.579103625852620308e-03,1.720831711601992359e-02
2.278600137868779303e-06,-3.579103633596645781e-03,1.710624544629706437e-02
2.266639071123842984e-06,-3.579103641259535635e-03,1.700470958195778037e-02
2.254740791647846416e-06,-3.579103648842140752e-03,1.690370671039616648e-02
2.242904969851160829e-06,-3.579103656345300737e-03,1.680323403377014663e-02
2.231131277874915546e-06,-3.579103663769848259e-03,1.670328876892452144e-02
2.219419389580764975e-06,-3.579103671116608178e-03,1.660386814731346430e-02
2.207768980543025181e-06,-3.579103678386393213e-03,1.650496941492439820e-02
2.196179728039232431e-06,-3.579103685580009141e-03,1.640658983220183789e-02
2.184651311039130496e-06,-3.579103692698257407e-03,1.630872667396996920e-02
2.173183410199948020e-06,-3.579103699741923404e-03,1.621137722935914183e-02
2.161775707853814151e-06,-3.579103706711789928e-03,1.611453880172952075e-02
2.150427888000676073e-06,-3.579103713608630232e-03,1.601820870859665957e-02
2.139139636299646143e-06,-3.579103720433207594e-03,1.592238428155754240e-02
2.127910640059564250e-06,-3.579103727186282256e-03,1.582706286621632721e-02
2.116740588231123795e-06,-3.579103733868600149e-03,1.573224182211123770e-02
2.105629171396652241e-06,-3.579103740480904169e-03,1.563791852264041077e-02
2.094576081763812150e-06,-3.579103747023926370e-03,1.554409035499012409e-02
2.083581013156164813e-06,-3.579103753498392732e-03,1.545075472006256743e-02
2.072643661002938941e-06,-3.579103759905021432e-03,1.535790903240254190e-02
2.061763722333528761e-06,-3.579103766244523272e-03,1.526555072012703886e-02
2.050940895768049598e-06,-3.579103772517602117e-03,1.517367722485426021e-02
2.040174881507110798e-06,-3.579103778724952289e-03,1.508228600163141753e-02
2.029465381326311291e-06,-3.579103784867262474e-03,1.499137451886535695e-02
2.018812098566012082e-06,-3.579103790945215718e-03,1.490094025825178595e-02
2.008214738123467323e-06,-3.579103796959482928e-03,1.481098071470527376e-02
